ax,ay,az,gx,gy,gz,mx,my,mz,timestamp
0.99,9.45,-0.40,0.23,0.00,-0.23,-21.25,4.25,-50.98,30852
0.75,9.41,0.01,0.25,0.12,-0.27,-21.43,4.12,-51.21,30886
0.93,9.82,0.30,0.25,0.12,-0.33,-20.87,3.71,-51.51,30920
0.71,9.52,0.35,0.16,0.13,-0.32,-20.46,3.27,-51.87,30955
0.55,10.10,0.26,0.24,0.05,-0.35,-20.21,2.27,-51.15,30989
0.28,10.16,-0.37,0.00,-0.07,-0.26,-18.99,1.20,-50.82,31023
0.66,10.28,-0.17,-0.19,-0.03,-0.08,-19.58,0.98,-51.32,31057
0.55,9.06,-0.35,-0.16,0.07,-0.07,-18.90,0.57,-50.58,31091
0.57,9.46,-0.69,0.08,0.16,-0.14,-18.25,0.16,-50.64,31125
-0.02,10.21,-0.99,0.14,0.03,-0.12,-18.37,-0.39,-50.45,31160
0.27,9.38,-1.02,0.17,-0.24,-0.08,-18.50,-1.36,-50.91,31194
0.19,9.43,-0.21,0.22,-0.12,-0.11,-19.00,-2.25,-50.95,31228
0.06,9.11,0.49,0.21,-0.20,-0.17,-18.87,-2.56,-50.79,31262
-0.11,9.03,0.42,0.26,-0.16,-0.20,-19.19,-3.35,-50.94,31296
0.08,9.23,-0.86,0.32,0.03,-0.30,-19.51,-3.99,-50.86,31331
-1.61,8.18,-1.15,0.42,-0.01,-0.34,-19.38,-4.74,-50.98,31365
0.21,9.95,-1.92,0.50,-0.12,-0.26,-19.72,-6.05,-51.81,31399
-0.27,9.29,-0.48,0.47,-0.44,-0.14,-20.29,-7.04,-51.17,31433
-1.48,9.81,2.09,0.39,-1.22,-0.01,-21.35,-7.47,-50.83,31467
0.25,10.47,0.75,0.31,-0.50,-0.41,-22.45,-8.51,-50.91,31501
2.60,9.60,1.27,0.11,-0.31,-0.15,-23.22,-8.48,-51.15,31536
-0.04,12.08,-1.65,-0.42,0.17,0.39,-23.06,-8.08,-51.48,31570
-1.47,9.85,-1.92,-0.27,0.22,-0.21,-22.93,-7.54,-52.15,31604
0.54,9.17,-2.68,-0.23,0.49,-0.60,-22.41,-7.63,-52.10,31638
2.68,9.02,-3.25,-0.23,1.74,-0.96,-21.63,-8.26,-54.31,31672
1.19,8.12,-2.01,-0.25,2.04,-1.23,-19.23,-8.89,-55.76,31707
7.44,9.98,3.29,-0.51,2.93,-1.39,-15.55,-8.37,-57.25,31741
-0.59,11.36,-1.75,-0.29,3.72,-1.28,-10.04,-8.61,-59.47,31775
3.07,9.39,-2.74,-0.41,2.67,-0.71,-6.64,-7.47,-60.41,31809
-1.99,9.60,-5.80,-0.30,2.09,-0.58,-3.23,-6.27,-60.86,31843
-1.98,7.88,-4.91,-0.19,0.43,-0.39,-1.94,-5.19,-60.41,31877
-0.52,9.99,-1.14,-0.16,0.36,-0.17,-1.48,-4.41,-60.46,31912
-1.39,8.96,-3.82,-0.23,0.85,-0.46,-0.39,-3.52,-59.91,31946
-1.40,6.99,-1.09,-0.58,1.32,-0.59,1.08,-2.51,-59.00,31980
-1.40,10.01,-5.51,-0.65,1.07,-0.02,3.08,-1.71,-58.59,32014
-4.36,10.36,-0.93,-0.20,-0.29,-0.10,3.64,-0.85,-58.81,32048
-2.05,11.30,-0.45,-0.52,-0.78,0.23,2.73,0.91,-57.95,32083
1.16,14.21,0.05,-0.96,-1.50,0.62,0.95,3.05,-58.07,32117
5.01,12.46,-0.79,-1.36,-1.27,0.59,-0.63,4.66,-57.32,32151
11.17,15.46,-0.78,-1.42,-1.81,1.27,-2.85,7.09,-56.18,32185
5.75,12.73,-2.61,-1.30,-0.56,0.85,-2.62,9.31,-54.98,32219
-10.00,14.24,-11.75,-1.66,0.00,-0.41,-2.75,10.83,-53.22,32253
-2.46,12.24,-6.68,-0.13,0.66,-1.26,-2.63,10.82,-53.04,32288
2.00,8.08,-1.62,-0.13,2.02,-0.70,-0.80,10.71,-52.65,32322
-1.40,6.85,-4.21,-0.29,2.24,0.18,2.43,10.67,-52.08,32356
-3.38,6.47,-6.38,-0.15,2.60,0.56,5.45,10.30,-51.32,32390
-2.39,6.20,-4.63,-0.17,3.00,0.95,9.56,9.95,-50.34,32424
-2.97,7.74,-4.04,-0.23,3.24,1.27,14.15,9.28,-47.63,32458
-1.93,9.11,-4.25,-0.13,3.23,1.62,18.09,8.30,-44.75,32493
-3.90,10.41,-4.63,0.34,3.27,1.60,21.50,6.34,-42.18,32527
-3.96,10.74,-4.70,0.53,2.66,1.68,23.91,5.96,-39.33,32561
-3.89,11.20,-4.70,0.81,1.83,1.60,25.58,4.71,-38.47,32595
-4.01,11.85,-4.75,1.03,1.34,1.28,27.45,3.92,-36.96,32629
-3.52,11.56,-3.71,1.00,1.01,0.95,28.98,3.33,-36.74,32664
-3.18,10.90,-2.35,1.06,1.04,0.49,30.34,2.73,-35.85,32698
-2.58,10.35,-2.36,1.15,1.15,0.28,32.27,2.63,-34.33,32732
-2.49,9.83,-2.76,1.18,1.27,0.24,34.24,2.44,-33.38,32766
-2.25,9.66,-2.14,1.05,1.23,0.37,36.23,1.15,-32.11,32800
-1.92,9.42,-2.04,0.97,1.27,0.49,37.85,0.07,-31.41,32834
-1.74,9.50,-1.78,0.93,1.27,0.65,39.18,-1.61,-29.20,32869
-0.47,9.63,-0.74,0.65,1.33,0.61,40.72,-3.64,-27.76,32903
-0.58,10.35,-1.86,0.94,1.85,0.42,41.96,-5.09,-24.51,32937
-1.15,10.70,-2.03,0.86,1.06,0.27,42.82,-6.04,-22.39,32971
-0.19,10.74,-1.54,0.73,0.25,0.05,43.34,-6.72,-21.84,33005
0.09,10.16,-0.45,0.74,-0.15,-0.10,43.60,-7.10,-21.63,33040
-0.12,9.27,-0.63,0.82,-0.45,-0.16,43.58,-7.47,-21.82,33074
-0.53,9.32,-0.68,0.82,-0.83,-0.13,43.88,-7.59,-23.30,33108
1.43,9.33,-1.00,0.61,-1.55,0.05,43.74,-8.24,-24.60,33142
0.57,9.56,-0.63,0.57,-1.70,-0.04,43.03,-8.58,-27.90,33176
1.01,9.70,-0.49,0.47,-1.76,-0.15,42.31,-8.61,-29.96,33210
1.82,16.52,9.57,0.81,-1.78,-0.43,41.73,-8.45,-32.59,33245
3.30,11.21,0.56,0.28,-1.32,-0.51,41.20,-8.21,-34.64,33279
-0.68,10.15,-0.01,0.15,0.57,-0.71,41.48,-7.85,-33.41,33313
-0.94,10.21,-2.07,-0.04,-0.14,-0.17,41.87,-7.69,-33.70,33347
0.33,10.12,-1.08,-0.18,-0.56,0.06,42.18,-7.31,-33.88,33381
-1.27,10.80,-2.99,-0.34,-0.29,0.10,41.55,-7.45,-33.62,33416
-0.58,9.57,-3.58,-0.16,-0.67,-0.01,41.65,-7.44,-33.95,33450
-0.70,9.43,-3.76,-0.22,-0.63,-0.15,41.01,-7.15,-34.86,33484
0.78,9.61,-3.41,-0.34,-0.71,0.01,40.63,-7.48,-36.03,33518
0.49,9.50,-2.40,-0.43,-0.82,0.25,40.09,-7.42,-36.90,33552
0.76,9.63,-2.39,-0.55,-0.76,0.44,39.96,-7.99,-37.68,33586
0.76,9.37,-1.67,-0.54,-0.54,0.44,39.23,-8.26,-38.60,33621
0.57,9.14,-1.67,-0.45,-0.40,0.23,39.35,-8.77,-39.13,33655
-0.49,9.11,-2.53,-0.38,-0.37,-0.13,39.33,-9.11,-39.01,33689
2.32,8.69,-2.64,-0.37,-0.40,-0.55,38.89,-8.30,-39.02,33723
0.95,9.44,-2.51,-0.26,-0.18,-0.80,38.92,-7.44,-39.81,33757
0.70,9.79,-1.37,-0.30,-0.22,-0.76,38.59,-5.80,-39.75,33791
-0.63,10.18,-0.22,-0.34,-0.28,-0.69,39.16,-4.95,-40.32,33826
-0.46,10.06,-0.38,-0.61,-0.60,-0.53,38.25,-3.96,-41.83,33860
1.16,11.27,0.36,-0.86,-0.81,-0.15,37.46,-3.30,-41.60,33894
4.68,11.26,0.06,-1.10,-1.00,0.24,36.61,-2.92,-42.44,33928
3.42,10.23,-1.08,-1.21,-1.21,0.48,35.94,-1.72,-43.35,33962
3.37,9.94,-2.04,-1.36,-2.30,0.85,34.39,-2.28,-46.20,33997
-0.91,11.93,-1.07,-1.50,-3.35,1.46,32.01,-2.48,-49.63,34031
-7.00,11.03,-4.99,-1.92,-4.52,1.03,26.44,-2.27,-53.98,34065
0.06,9.53,-4.21,0.09,-4.09,0.33,21.59,-2.12,-57.69,34099
1.25,7.96,-0.23,0.18,-2.77,0.49,17.51,-3.04,-59.43,34133
-0.86,7.38,-1.07,0.49,-1.01,0.68,15.84,-4.24,-60.48,34167
-1.37,7.67,-1.58,0.91,-0.39,0.79,15.23,-6.64,-60.64,34202
0.48,7.61,-1.28,0.87,-0.41,0.92,15.13,-8.96,-60.67,34236
-2.21,8.40,0.11,0.91,-0.86,1.19,14.63,-11.41,-60.83,34270
0.53,8.87,-2.16,0.82,-2.05,1.24,11.66,-14.22,-61.33,34304
-0.47,10.10,-3.06,0.72,-2.96,1.20,7.15,-16.31,-61.50,34338
2.58,9.76,-1.08,0.30,-4.46,1.20,1.27,-16.85,-62.04,34373
4.04,10.00,-0.58,0.22,-3.99,0.87,-6.55,-17.22,-61.77,34407
4.99,9.86,-0.29,0.07,-3.07,0.55,-11.41,-17.71,-60.61,34441
1.42,10.41,1.21,-0.72,-2.63,0.05,-14.73,-18.46,-58.58,34475
12.28,8.93,4.21,-0.40,-2.60,0.11,-18.02,-17.89,-56.56,34509
4.83,11.83,1.90,-0.62,-0.13,-0.11,-19.03,-17.44,-56.61,34543
2.86,11.54,1.62,-1.15,-0.13,-0.02,-19.39,-16.50,-56.91,34578
4.69,10.80,-0.70,-1.12,0.29,-0.28,-18.56,-15.19,-57.22,34612
0.23,11.22,-2.52,-1.16,0.61,-0.55,-17.80,-13.74,-57.76,34646
0.54,8.99,-5.06,-1.05,0.62,-0.91,-16.47,-12.42,-57.37,34680
-2.97,8.26,-6.19,-0.61,0.42,-0.96,-16.06,-12.19,-58.33,34714
-5.58,6.85,-6.82,-0.15,-0.37,-0.96,-15.89,-12.13,-57.25,34749
-5.42,7.72,-5.55,0.12,-1.47,-0.91,-17.42,-13.27,-56.58,34783
-5.39,8.72,-3.62,0.97,-1.47,-1.34,-19.00,-15.45,-54.71,34817
-9.65,8.92,-0.87,1.04,-1.23,-1.68,-19.82,-18.37,-52.75,34851
-2.40,5.19,0.76,0.75,-1.18,-1.57,-20.46,-20.61,-52.62,34885
6.20,17.80,1.00,0.18,-0.42,-1.24,-19.80,-21.05,-51.27,34919
1.41,9.75,-3.51,0.77,0.50,-1.82,-18.12,-22.93,-50.20,34954
3.37,11.66,-3.06,0.39,-0.17,-1.26,-17.44,-23.88,-49.96,34988
-1.17,11.66,-2.45,0.30,-1.42,-0.89,-17.17,-24.22,-48.17,35022
-1.65,10.71,-6.49,0.22,-2.36,-0.37,-18.40,-23.74,-47.11,35056
0.64,11.77,-5.28,-0.03,-2.74,-0.04,-21.13,-22.99,-44.91,35090
3.47,11.89,-7.96,-0.09,-3.38,0.54,-24.12,-20.97,-42.02,35125
3.52,11.81,-9.73,-0.12,-4.04,0.99,-27.59,-18.84,-38.70,35159
6.56,11.60,-8.65,-0.07,-5.65,1.57,-31.92,-16.78,-33.82,35193
17.08,8.45,-15.34,0.84,-9.36,1.95,-36.04,-12.79,-23.21,35227
12.29,15.11,-3.98,2.04,-6.06,0.84,-36.80,-11.52,-14.29,35261
5.90,7.93,-13.76,2.51,-7.90,2.48,-34.98,-8.10,-3.60,35295
-1.74,0.55,-8.44,2.82,-7.79,2.81,-29.92,-3.01,5.29,35330
0.50,2.89,-2.98,3.51,-6.42,2.31,-23.76,1.53,10.51,35364
-0.90,14.15,2.60,3.32,-2.09,1.15,-18.58,6.26,10.93,35398
-4.30,14.05,5.64,2.15,3.03,-0.63,-19.61,9.12,9.76,35432
-6.67,14.04,3.45,1.46,5.12,-2.05,-24.28,9.31,4.11,35466
-8.81,12.15,-6.36,1.67,6.17,-2.86,-31.41,8.14,-3.14,35500
-4.82,13.50,-1.52,1.58,5.30,-2.58,-34.55,7.06,-8.78,35535
0.04,14.99,1.03,1.21,3.10,-2.33,-38.26,4.49,-13.87,35569
0.37,18.10,0.31,0.98,3.91,-2.69,-39.70,1.55,-18.53,35603
2.47,14.23,1.45,0.58,4.05,-2.99,-40.72,-1.70,-23.88,35637
3.61,16.14,2.85,0.09,4.54,-2.90,-39.81,-6.12,-30.46,35671
0.43,14.05,1.80,-0.45,4.79,-2.80,-37.78,-9.18,-36.66,35706
0.84,11.30,2.98,-0.55,4.39,-2.85,-34.35,-12.73,-42.15,35740
1.55,9.50,1.86,-0.75,4.62,-2.78,-28.98,-14.97,-47.14,35774
-3.01,6.67,-7.08,-0.70,4.33,-2.88,-23.68,-17.20,-50.82,35808
-0.47,5.39,-4.91,-0.45,2.32,-2.13,-17.95,-18.62,-53.33,35842
-4.66,12.18,-0.85,-0.44,2.37,-2.55,-13.74,-19.94,-54.47,35876
-1.53,10.09,-0.67,0.07,-1.09,-1.98,-12.79,-21.22,-54.18,35911
-1.33,10.48,-2.98,-0.11,-1.07,-1.60,-12.09,-22.55,-54.37,35945
0.31,9.64,-3.53,-0.20,-1.71,-0.75,-13.46,-22.86,-53.39,35979
-3.04,9.47,-5.89,-0.18,-2.07,-0.16,-15.45,-22.70,-53.45,36013
-4.24,8.15,-9.62,-0.22,-2.61,0.47,-18.06,-22.42,-51.55,36047
-6.08,6.72,-14.76,-0.10,-4.05,0.34,-21.50,-21.63,-49.55,36082
2.03,8.28,-20.87,0.08,-5.23,0.30,-26.38,-21.51,-44.77,36116
9.32,8.16,-19.02,0.78,-7.02,1.07,-31.32,-20.78,-37.45,36150
9.72,5.81,-19.78,1.00,-7.64,2.00,-35.94,-18.12,-27.36,36184
11.67,6.06,-18.77,1.21,-7.67,2.28,-37.14,-15.29,-17.93,36218
8.00,9.23,-11.70,1.70,-6.77,1.46,-36.22,-12.00,-9.72,36252
8.15,10.28,-7.37,2.13,-6.22,0.94,-33.63,-9.85,-1.18,36287
3.80,7.93,-4.48,2.10,-3.63,0.30,-31.03,-8.68,2.24,36321
7.26,15.44,-3.04,1.83,-1.69,-0.19,-28.02,-7.25,4.81,36355
1.59,9.94,-5.05,1.43,-0.44,-0.52,-27.30,-7.09,4.11,36389
-1.27,9.49,-1.55,1.43,-0.03,-0.14,-26.40,-6.27,4.50,36423
-1.74,11.11,1.12,1.81,1.47,-0.17,-26.72,-5.67,3.68,36458
-1.92,10.67,-0.20,1.57,1.84,-0.09,-27.65,-4.65,1.45,36492
-1.56,11.72,-2.09,1.29,1.99,0.17,-28.28,-4.44,-1.48,36526
-6.98,11.88,0.84,0.89,2.11,0.35,-29.74,-2.67,-5.01,36560
-9.82,11.62,-0.27,0.46,3.16,0.10,-31.63,-1.15,-9.02,36594
-5.26,13.09,0.38,0.24,4.17,-0.25,-32.91,0.72,-14.44,36628
-1.62,13.84,2.34,0.27,4.18,-1.15,-34.41,1.01,-19.26,36663
-0.07,8.97,-6.66,0.29,5.25,-2.39,-33.97,-0.64,-25.81,36697
-0.97,8.16,-4.42,0.46,4.38,-2.41,-33.63,-3.04,-32.78,36731
-2.23,9.48,-1.51,0.51,3.52,-2.35,-32.01,-4.98,-36.90,36765
0.07,11.29,-2.70,0.43,3.34,-2.43,-30.06,-7.00,-41.54,36799
-2.22,15.21,2.35,0.35,2.97,-2.16,-27.43,-10.63,-45.34,36833
6.24,11.02,5.44,-0.27,2.19,-2.03,-24.99,-12.34,-48.25,36868
5.29,13.16,2.33,-0.80,1.32,-0.67,-23.14,-12.16,-50.69,36902
1.06,10.41,1.56,-1.00,0.88,-0.72,-21.98,-11.60,-51.94,36936
1.09,10.31,-7.05,-1.01,1.39,-0.21,-21.13,-11.14,-53.54,36970
-0.90,8.87,-6.03,-0.78,-0.38,0.01,-21.16,-9.85,-52.84,37004
2.34,6.86,-5.34,-0.80,-1.14,-0.29,-22.22,-9.78,-52.85,37039
1.89,8.05,-4.77,-0.55,-1.49,-0.45,-24.03,-9.73,-52.03,37073
1.19,8.03,-3.41,-0.46,-0.98,-0.22,-24.63,-9.78,-52.05,37107
-0.66,9.20,-3.94,-0.52,-1.19,-0.06,-25.78,-9.25,-50.60,37141
-3.34,6.41,-7.34,-0.51,-2.08,0.10,-27.95,-9.34,-48.93,37175
1.71,10.25,-7.78,-0.25,-2.15,0.01,-30.04,-8.70,-48.14,37209
3.57,8.08,-6.68,-0.14,-3.34,0.09,-32.37,-9.40,-43.93,37244
1.58,8.57,-4.11,-0.00,-2.42,0.38,-34.24,-9.06,-41.57,37278
0.72,8.23,-5.88,-0.00,-2.67,0.28,-35.59,-8.89,-39.26,37312
0.58,7.50,-7.66,0.24,-2.34,0.06,-37.23,-9.53,-35.53,37346
1.62,8.24,-9.81,0.59,-3.07,0.25,-38.51,-10.80,-31.51,37380
4.76,6.57,-9.12,0.76,-4.24,0.56,-40.05,-10.36,-26.85,37415
8.91,7.65,-8.72,0.95,-4.41,0.95,-40.47,-9.51,-20.14,37449
9.71,9.09,-4.42,1.11,-3.74,0.85,-39.89,-8.65,-14.72,37483
4.48,8.75,-4.10,1.28,-2.24,0.67,-38.32,-7.54,-10.84,37517
-0.42,7.79,-3.44,1.21,-1.19,0.75,-38.29,-6.37,-10.00,37551
-0.83,8.63,-4.27,1.12,-0.97,0.78,-37.04,-5.38,-8.56,37585
-2.72,7.87,-4.80,1.24,-0.07,0.60,-36.14,-4.40,-8.36,37620
-4.49,9.87,-1.41,1.28,0.71,-0.12,-35.44,-3.55,-8.84,37654
-3.62,9.99,1.88,1.10,2.57,-0.97,-36.09,-4.37,-12.19,37688
-4.01,14.04,3.46,0.84,4.96,-2.61,-36.55,-6.47,-17.49,37722
-2.68,15.37,1.73,0.46,6.89,-4.22,-36.00,-9.92,-25.01,37756
-3.30,16.64,1.93,0.15,7.28,-5.29,-31.45,-15.87,-35.33,37791
-4.74,13.82,5.87,-0.65,6.75,-4.46,-25.91,-19.79,-42.24,37825
0.35,21.97,8.78,-0.42,3.89,-3.44,-21.06,-21.47,-46.00,37859
-3.84,3.32,3.64,-0.95,3.24,-3.91,-15.14,-22.87,-48.90,37893
-1.20,13.21,-3.75,-1.28,1.57,-0.85,-11.93,-22.17,-50.42,37927
-5.55,14.74,-3.71,-0.71,0.03,-0.59,-10.99,-20.56,-51.27,37961
-3.52,2.30,-2.26,-1.02,-0.14,-0.82,-10.63,-20.56,-51.64,37996
-5.55,9.24,-8.20,-1.00,-0.64,0.03,-10.93,-19.26,-51.81,38030
-4.09,6.74,-10.22,-0.59,-1.89,-0.16,-12.57,-17.71,-52.56,38064
-1.97,4.53,-11.52,-0.24,-2.81,0.20,-15.74,-17.33,-52.10,38098
-2.73,7.28,-14.43,-0.12,-4.01,0.73,-19.98,-15.80,-50.12,38132
0.76,6.97,-14.30,0.22,-4.94,0.55,-24.03,-16.02,-47.08,38166
4.49,6.78,-16.20,0.49,-5.70,0.92,-28.97,-15.30,-42.78,38201
3.27,10.41,-15.24,0.81,-6.32,1.22,-34.79,-14.47,-34.84,38235
6.70,9.67,-16.89,1.35,-7.04,1.33,-38.26,-13.58,-26.56,38269
10.62,5.18,-14.66,1.80,-8.09,1.92,-39.30,-11.21,-13.99,38303
13.67,4.89,-11.72,2.24,-7.12,1.94,-38.02,-8.45,-5.23,38337
13.51,15.22,-1.78,2.36,-4.53,1.59,-35.30,-6.28,1.21,38372
0.39,13.58,-2.40,1.72,-1.39,-0.60,-32.94,-5.58,3.68,38406
3.03,6.56,-2.10,1.44,-0.36,-0.89,-32.40,-5.99,4.21,38440
-1.15,13.39,1.39,1.75,1.28,0.24,-32.65,-4.79,3.41,38474
-3.17,12.30,1.42,1.40,1.45,-0.00,-33.54,-3.76,0.80,38508
-1.76,11.74,2.42,0.57,1.84,0.14,-34.14,-3.19,-1.04,38542
-2.80,11.58,1.62,0.02,4.25,-0.39,-36.45,-3.00,-5.86,38577
-3.14,8.08,0.22,-0.36,4.22,-0.56,-38.37,-3.11,-11.56,38611
-4.49,9.66,-4.83,-0.43,1.83,0.33,-38.98,-2.62,-15.02,38645
-1.54,9.14,-4.51,-0.17,0.99,0.16,-39.18,-1.42,-16.06,38679
2.45,8.18,-7.27,0.09,1.55,-0.35,-39.36,-1.46,-18.42,38713
-5.30,7.70,-5.16,0.30,2.53,-1.38,-40.03,-3.30,-21.91,38748
-7.01,5.72,-1.93,0.13,3.41,-1.78,-39.49,-5.55,-25.99,38782
-1.60,14.76,-2.98,0.33,1.86,-1.24,-38.75,-7.78,-29.83,38816
-3.46,10.59,-0.44,0.40,0.95,-1.27,-38.12,-9.18,-31.13,38850
-0.08,12.36,2.00,0.20,1.74,-1.22,-37.34,-11.28,-33.44,38884
1.59,11.71,2.31,-0.45,2.83,-1.13,-35.88,-12.74,-37.01,38918
1.55,11.75,-0.55,-0.39,1.84,-0.94,-33.73,-13.45,-39.84,38953
0.44,6.24,-1.51,-0.62,1.83,-1.05,-32.21,-14.13,-41.68,38987
2.18,8.73,-2.35,-0.82,1.65,-0.39,-29.90,-14.06,-43.64,39021
-5.82,6.92,-5.58,-0.67,0.64,-0.28,-29.07,-14.15,-43.96,39055
1.13,11.73,-6.10,-0.78,0.80,-0.57,-27.96,-14.02,-44.96,39089
-4.15,8.31,-6.83,-0.28,-0.85,-0.76,-27.77,-14.18,-45.15,39124
-1.51,8.37,-5.83,-0.20,-1.85,-0.76,-28.37,-14.05,-43.74,39158
1.04,6.53,-6.90,0.04,-2.99,0.09,-30.66,-14.06,-39.17,39192
4.67,8.71,-5.64,0.08,-4.41,1.82,-33.19,-12.22,-36.19,39226
5.82,8.69,-3.12,0.11,-4.75,2.21,-35.97,-8.78,-30.21,39260
3.16,6.43,-3.74,-0.01,-3.08,1.29,-36.79,-6.58,-26.59,39294
3.41,5.06,-10.07,0.41,-2.40,0.50,-36.92,-5.64,-23.60,39329
-1.96,8.88,-4.72,0.67,-2.56,0.64,-36.73,-4.76,-20.53,39363
-6.17,2.96,-6.73,0.90,-2.88,-0.09,-36.69,-5.07,-17.04,39397
0.08,4.97,-9.92,1.84,-4.01,0.39,-36.03,-4.95,-12.89,39431
-0.32,9.46,-5.55,2.26,-2.50,0.35,-35.24,-4.03,-9.13,39465
-0.98,7.50,-4.24,1.76,-0.30,0.09,-35.09,-4.28,-10.35,39500
-2.20,10.16,-5.29,1.28,0.90,0.18,-35.52,-3.41,-11.49,39534
-6.76,9.20,-1.51,0.87,1.38,0.23,-36.13,-2.92,-13.88,39568
-3.41,13.61,1.59,0.59,2.31,-0.22,-36.57,-3.23,-16.78,39602
-4.63,14.38,2.26,0.60,3.60,-1.17,-36.85,-5.07,-20.64,39636
1.23,14.82,4.28,0.31,4.13,-2.55,-36.12,-7.35,-25.53,39670
3.85,14.24,5.28,0.02,4.75,-2.70,-33.57,-10.74,-31.64,39705
3.36,14.74,3.23,-0.28,4.54,-2.51,-31.19,-12.61,-36.28,39739
6.78,12.80,-3.61,-0.43,3.92,-2.30,-27.86,-13.59,-40.19,39773
2.68,10.59,-1.66,-0.66,4.16,-2.45,-23.84,-14.63,-45.12,39807
-3.40,6.95,-2.61,-0.92,3.45,-2.12,-19.95,-14.40,-47.50,39841
-4.68,7.59,-3.11,-0.97,2.23,-1.56,-16.98,-13.72,-49.27,39875
1.44,7.11,-6.43,-0.81,1.46,-1.46,-14.66,-13.45,-50.64,39910
-1.72,8.16,-3.06,-0.64,0.22,-0.71,-14.03,-12.53,-51.46,39944
-1.69,10.33,-1.37,-0.82,-0.47,-0.59,-14.78,-11.25,-51.52,39978
-3.55,4.97,-3.27,-1.01,-0.92,-0.51,-15.49,-9.43,-51.15,40012
-6.15,8.79,-12.16,-0.53,-2.42,-0.15,-16.97,-8.45,-50.69,40046
-1.85,7.61,-10.27,-0.32,-2.95,-0.00,-20.75,-7.95,-49.20,40081
-2.69,8.84,-10.81,-0.28,-4.15,0.50,-25.10,-6.99,-46.84,40115
-1.26,8.50,-8.65,-0.27,-3.97,0.70,-30.12,-5.60,-43.66,40149
2.73,7.18,-10.38,-0.05,-5.04,0.82,-33.41,-4.43,-39.80,40183
5.28,9.63,-9.52,0.14,-3.68,0.48,-36.66,-3.64,-34.98,40217
6.06,11.36,-9.16,0.30,-4.29,0.63,-39.96,-3.51,-29.09,40251
3.56,8.93,-8.28,0.53,-4.14,0.54,-41.44,-3.42,-23.47,40286
9.70,8.20,-9.74,0.76,-4.47,0.81,-42.25,-2.47,-17.26,40320
2.51,9.76,-7.96,1.31,-4.29,0.45,-41.83,-2.76,-11.72,40354
5.11,5.78,-12.28,1.84,-5.23,0.93,-39.77,-1.45,-5.17,40388
1.63,9.84,-5.02,2.06,-4.80,1.07,-36.89,0.60,1.39,40422
-1.31,9.11,-3.68,2.20,-2.27,0.17,-33.70,2.06,4.31,40457
0.09,11.77,-1.09,2.34,0.56,-0.04,-32.86,2.95,3.01,40491
-4.07,10.22,-0.86,1.97,2.71,-0.73,-34.33,2.62,-1.43,40525
-7.86,13.42,2.05,1.58,3.32,-0.69,-36.03,2.50,-5.63,40559
-8.80,11.70,0.45,1.00,4.55,-1.18,-38.56,1.34,-13.15,40593
-4.68,14.67,0.64,0.52,4.99,-1.66,-39.61,0.19,-19.75,40627
-4.38,13.71,0.15,0.39,5.47,-2.32,-39.77,-2.19,-26.40,40662
1.03,13.81,1.26,0.02,4.72,-2.99,-38.00,-6.56,-34.08,40696
-0.02,13.22,0.23,-0.18,4.75,-2.88,-34.81,-9.28,-39.80,40730
-0.18,14.54,2.90,-0.27,4.08,-2.85,-30.77,-12.31,-44.93,40764
-1.84,11.37,4.26,-0.53,4.54,-3.65,-26.02,-14.91,-48.89,40798
2.35,10.13,-4.21,-0.94,2.57,-2.33,-21.00,-16.79,-51.96,40833
0.62,7.58,0.20,-0.86,1.73,-1.55,-18.06,-16.28,-52.53,40867
-6.38,6.76,-2.83,-1.10,0.41,-0.66,-16.78,-15.45,-53.24,40901
-3.85,9.41,-7.05,-0.86,-0.36,-0.71,-16.79,-14.60,-53.46,40935
-7.71,7.37,-12.81,-0.32,-1.81,-0.49,-18.12,-13.94,-53.16,40969
1.25,5.88,-9.36,-0.15,-3.30,-0.11,-22.13,-12.88,-50.89,41003
-1.68,9.43,-8.75,-0.11,-3.18,0.11,-25.75,-13.30,-47.52,41038
-0.53,7.16,-7.73,0.02,-3.59,0.45,-28.44,-12.70,-44.49,41072
3.94,7.78,-9.97,0.01,-3.70,0.56,-31.13,-11.59,-41.90,41106
5.89,6.55,-9.76,0.16,-4.28,0.70,-34.57,-9.75,-35.93,41140
3.32,8.18,-10.69,0.22,-4.40,1.33,-36.54,-7.56,-31.31,41174
4.97,7.49,-8.21,0.48,-4.58,1.54,-38.78,-4.93,-24.66,41208
5.94,5.37,-10.71,0.80,-4.23,1.39,-39.52,-2.60,-20.01,41243
2.50,8.93,-6.65,1.03,-2.96,0.53,-39.86,-1.14,-15.93,41277
2.76,8.60,-4.72,1.11,-2.70,0.65,-39.71,0.54,-13.10,41311
2.73,8.96,-4.04,1.14,-2.44,0.53,-39.65,1.15,-10.38,41345
1.26,7.38,-5.67,1.12,-1.40,0.35,-39.52,1.53,-8.59,41379
0.49,9.10,-7.68,1.35,-1.55,0.36,-39.14,1.93,-7.09,41414
-0.90,9.50,-3.57,1.64,-0.36,0.14,-39.20,2.16,-6.55,41448
-2.96,10.46,0.22,1.99,1.11,-0.37,-39.36,1.72,-9.09,41482
1.11,11.56,2.73,1.73,2.07,-0.68,-40.15,0.83,-12.26,41516
-3.54,15.89,7.21,1.08,3.82,-1.44,-41.25,-1.45,-16.95,41550
-5.09,16.91,2.31,0.60,5.37,-2.46,-41.95,-6.26,-25.05,41584
-6.42,11.40,-0.42,-0.07,6.57,-3.41,-40.15,-10.17,-33.72,41619
-4.79,12.60,-3.29,-0.24,5.12,-2.74,-36.82,-15.13,-41.99,41653
-2.75,14.44,3.95,-0.63,4.21,-3.42,-31.99,-18.01,-46.71,41687
-2.21,8.92,0.40,-1.24,3.47,-2.96,-27.10,-20.04,-50.79,41721
0.38,14.31,-2.90,-1.25,2.29,-1.57,-22.62,-20.04,-53.39,41755
0.14,11.10,2.36,-0.88,1.42,-1.76,-20.26,-20.45,-54.52,41790
-1.66,7.66,0.79,-1.14,1.75,-1.58,-17.44,-20.24,-55.76,41824
-3.63,7.98,-6.09,-1.03,-0.55,-0.82,-15.48,-19.42,-56.14,41858
-1.96,6.68,-5.90,-0.93,-1.52,-0.55,-17.29,-19.01,-55.70,41892
-2.96,6.88,-9.50,-0.66,-2.28,0.16,-19.94,-17.67,-54.17,41926
-3.33,6.95,-8.72,-0.59,-2.99,0.54,-22.74,-16.97,-51.68,41960
-3.47,7.40,-12.70,-0.52,-3.98,0.64,-25.75,-15.92,-48.89,41995
3.18,6.63,-20.02,0.39,-6.65,1.17,-31.79,-13.96,-41.54,42029
11.37,2.67,-18.86,1.21,-7.74,1.42,-36.33,-12.47,-32.37,42063
10.35,6.23,-12.36,1.75,-7.67,2.42,-37.85,-9.57,-21.22,42097
0.80,20.30,1.79,1.53,-5.69,1.88,-37.66,-5.61,-13.39,42131
2.09,7.38,-8.32,1.61,-1.96,-0.25,-36.29,-5.35,-10.38,42166
4.78,12.00,-5.85,1.44,-1.21,0.80,-35.85,-3.95,-9.68,42200
-0.36,7.68,-2.60,1.50,-2.07,0.70,-34.74,-2.10,-7.40,42234
2.72,11.79,-6.19,1.61,-0.68,0.45,-34.05,-0.28,-6.53,42268
-2.40,9.47,0.70,1.77,0.21,0.47,-34.07,1.32,-7.82,42302
-1.36,10.67,0.38,1.32,1.14,-0.16,-33.97,1.74,-10.26,42336
-0.64,11.14,2.39,0.96,3.52,-0.98,-35.63,1.04,-13.65,42371
-2.66,13.85,-2.89,0.48,5.14,-1.80,-37.11,-0.54,-20.71,42405
-3.03,12.43,2.50,0.32,5.42,-2.55,-37.53,-3.17,-28.12,42439
-6.49,8.91,-4.70,0.12,6.92,-3.65,-34.95,-7.53,-37.21,42473
-5.06,15.20,-3.98,0.16,6.93,-3.79,-30.61,-11.43,-44.72,42507
-2.54,10.40,0.24,-0.25,5.60,-4.49,-24.32,-16.08,-51.37,42541
-1.51,12.41,-1.71,-0.85,3.45,-3.37,-17.30,-18.61,-54.91,42576
-2.75,9.48,3.49,-0.80,1.02,-2.62,-14.24,-19.41,-55.39,42610
-2.41,10.70,-3.29,-0.76,0.35,-1.24,-12.76,-19.57,-55.58,42644
-6.50,8.08,-4.56,-0.96,-1.20,-0.47,-13.64,-18.17,-55.95,42678
-5.89,3.97,-8.08,-0.90,-1.85,-0.27,-15.26,-17.10,-55.48,42712
-4.55,5.39,-10.18,-0.46,-2.82,0.10,-19.19,-16.27,-53.26,42747
-1.55,6.76,-11.64,-0.11,-3.94,0.62,-23.21,-15.29,-51.02,42781
0.65,6.49,-11.20,0.06,-4.38,1.16,-28.46,-14.19,-46.67,42815
0.56,7.91,-13.51,0.26,-5.37,1.46,-32.96,-12.80,-41.83,42849
7.79,6.60,-13.93,0.65,-6.56,1.69,-36.77,-11.02,-33.86,42883
11.52,7.15,-12.41,0.97,-6.25,1.96,-39.97,-7.76,-24.89,42917
9.53,9.59,-8.36,1.17,-5.02,1.71,-40.81,-5.26,-18.27,42952
8.02,6.43,-7.23,1.38,-4.62,1.54,-40.50,-3.61,-12.03,42986
2.23,9.89,0.89,1.18,-3.69,1.53,-39.75,-0.61,-7.40,43020
6.20,7.47,-6.42,1.48,-4.12,1.12,-37.72,0.82,-3.51,43054
-6.34,8.71,-1.55,1.84,-0.06,-0.18,-37.31,2.03,-2.85,43088
1.25,9.97,-3.58,1.39,1.48,-0.69,-37.52,1.29,-4.90,43123
1.08,10.85,-0.63,1.15,2.62,-1.01,-38.69,0.61,-7.82,43157
-0.66,13.53,3.64,0.85,2.59,-0.95,-40.35,-1.14,-13.40,43191
-3.86,13.47,3.38,0.45,3.07,-1.15,-40.84,-2.54,-17.42,43225
-0.42,10.46,-2.28,0.39,2.79,-1.11,-41.41,-4.21,-22.03,43259
0.00,10.75,-0.34,0.45,3.46,-1.69,-40.79,-6.37,-26.69,43293
0.05,13.95,1.05,0.26,4.57,-1.88,-39.70,-9.47,-32.42,43328
-0.89,12.93,-0.44,-0.09,4.94,-2.46,-35.56,-13.55,-39.62,43362
0.76,10.46,-0.69,-0.61,5.57,-2.94,-31.48,-16.33,-45.75,43396
-5.55,12.97,-1.52,-1.00,6.51,-3.34,-25.80,-17.51,-51.40,43430
-4.02,5.13,-4.10,-1.15,4.79,-3.80,-16.78,-19.26,-55.16,43464
-3.79,5.25,-8.39,-0.99,1.61,-2.63,-12.77,-19.25,-56.42,43499
-1.40,6.97,-3.83,-0.74,-1.03,-1.16,-12.22,-18.93,-55.88,43533
-5.36,8.86,-4.48,-0.64,-2.61,-0.39,-14.92,-18.52,-55.50,43567
-6.13,7.19,-7.45,-0.40,-3.36,0.07,-18.59,-17.63,-52.92,43601
-8.15,5.79,-10.00,-0.25,-4.97,0.78,-24.47,-16.72,-49.17,43635
-7.09,6.42,-11.57,0.13,-6.00,1.34,-29.68,-15.51,-43.41,43669
-4.17,8.04,-13.30,0.90,-7.14,1.68,-35.95,-12.77,-34.26,43704
7.08,8.03,-15.55,1.27,-7.13,1.65,-38.57,-10.46,-25.52,43738
7.62,9.96,-9.37,1.40,-4.88,0.74,-39.42,-9.15,-19.41,43772
7.26,7.18,-13.64,1.67,-3.97,0.28,-39.26,-8.96,-13.55,43806
5.59,8.06,-9.10,2.03,-3.54,0.23,-38.85,-8.36,-9.12,43840
7.95,7.31,-11.14,2.28,-2.87,0.46,-37.20,-7.89,-5.42,43875
6.76,10.62,-5.48,2.34,-2.74,0.92,-35.31,-5.69,-1.62,43909
2.14,9.36,-4.12,1.66,-0.65,0.52,-34.79,-4.34,-0.45,43943
-0.33,10.46,-4.33,1.14,0.36,0.53,-34.90,-3.51,-1.11,43977
-4.63,8.17,-0.91,1.16,0.72,0.27,-34.99,-2.50,-2.94,44011
-5.18,10.18,-1.00,1.17,1.91,-0.35,-35.55,-2.51,-5.07,44045
-3.62,9.95,-1.07,0.91,3.29,-0.98,-36.99,-2.65,-9.54,44080
-8.74,11.13,1.55,0.88,4.12,-1.67,-37.99,-4.49,-15.20,44114
-2.17,10.77,-3.59,0.78,5.09,-2.30,-38.21,-7.13,-23.53,44148
-5.40,13.23,-1.53,0.56,5.42,-2.91,-36.71,-10.35,-30.46,44182
0.67,15.42,4.11,0.07,5.81,-3.61,-33.94,-14.07,-37.11,44216
1.06,14.76,-2.98,-0.39,5.93,-3.81,-27.64,-18.58,-45.69,44250
-3.20,14.98,3.51,-0.34,4.01,-3.26,-22.80,-20.80,-48.64,44285
1.04,9.05,5.02,-0.82,3.49,-3.50,-17.44,-22.48,-50.51,44319
-8.48,14.02,-3.39,-0.81,3.10,-2.51,-11.52,-22.83,-53.07,44353
3.18,4.01,0.26,-1.10,1.40,-2.10,-8.29,-22.42,-53.65,44387
-2.36,12.80,-3.57,-1.19,1.01,-0.90,-5.99,-20.77,-54.65,44421
-3.30,5.29,-3.68,-1.15,-0.02,-0.76,-5.54,-19.18,-54.82,44456
-6.10,7.76,-5.60,-1.01,-0.47,-0.57,-5.82,-18.40,-55.76,44490
-5.28,4.77,-9.17,-0.83,-1.69,-0.62,-7.67,-16.30,-55.23,44524
-2.26,5.99,-7.29,-0.62,-3.23,0.05,-11.18,-15.32,-55.04,44558
-1.74,7.69,-6.17,-0.40,-3.57,0.26,-15.49,-13.94,-53.23,44592
-0.29,6.56,-8.68,0.05,-4.13,0.54,-20.34,-13.33,-51.52,44626
-3.67,7.95,-11.30,0.25,-4.47,0.91,-24.86,-12.38,-48.26,44661
-0.91,6.88,-11.06,0.63,-5.34,1.13,-31.01,-11.60,-43.36,44695
0.88,7.10,-13.64,1.09,-7.14,1.66,-35.27,-10.73,-36.58,44729
4.52,4.57,-14.30,1.64,-7.10,1.21,-39.02,-10.57,-25.97,44763
18.25,15.95,-11.48,2.08,-6.32,1.55,-40.32,-9.53,-17.44,44797
36.76,15.43,2.29,2.15,-3.64,0.48,-38.54,-9.91,-12.80,44832
-22.61,6.69,-32.74,1.44,-2.33,0.45,-36.90,-9.00,-6.71,44866
13.69,10.05,-2.11,2.48,-2.87,0.77,-34.16,-8.39,-3.86,44900
-2.13,8.68,3.23,2.08,-0.97,0.23,-31.95,-7.31,-2.94,44934
-0.80,10.88,-3.48,1.34,1.64,-0.29,-30.88,-6.27,-5.19,44968
-0.53,9.17,-2.13,1.01,2.06,-0.69,-30.50,-5.77,-7.60,45002
-1.53,11.01,-0.51,1.04,2.95,-1.05,-30.74,-5.89,-12.01,45037
0.58,12.93,2.25,0.43,5.43,-2.40,-31.25,-7.21,-17.67,45071
-7.84,9.77,4.89,-0.24,6.52,-2.87,-29.80,-9.31,-25.40,45105
18.13,12.41,-8.88,-0.58,7.04,-3.09,-27.30,-11.14,-34.45,45139
2.03,3.76,-1.71,-0.53,3.27,-2.22,-23.84,-11.66,-39.42,45173
-6.93,12.18,-0.87,-0.18,2.73,-1.76,-22.10,-11.20,-41.99,45208
3.59,10.86,-1.26,-0.16,0.77,-1.19,-21.03,-11.44,-43.67,45242
-1.20,14.38,0.60,-0.27,1.33,-0.36,-20.65,-10.61,-45.03,45276
-5.29,8.91,-1.12,-0.59,1.26,-0.55,-19.58,-10.52,-45.88,45310
-3.98,8.30,-8.50,-0.71,-0.07,-0.02,-19.82,-9.46,-46.86,45344
-7.55,4.89,-7.29,-0.60,-0.77,-0.03,-20.89,-8.35,-47.60,45378
-5.79,2.96,-14.20,0.05,-0.45,-0.24,-22.22,-8.04,-47.57,45413
-2.53,4.99,-9.85,0.69,-1.78,-0.02,-23.98,-8.29,-46.76,45447
6.92,8.01,-10.09,0.87,-2.78,0.70,-26.31,-9.05,-45.40,45481
5.65,8.77,-1.52,0.92,-1.37,0.36,-28.09,-9.51,-44.02,45515
2.14,9.58,-5.74,0.67,-0.40,0.53,-28.53,-10.14,-45.00,45549
1.93,12.86,-3.43,0.04,0.45,0.79,-28.16,-9.94,-45.83,45583
-1.11,12.44,1.49,0.08,1.89,0.20,-27.07,-9.60,-47.40,45618
-13.93,11.91,-5.89,0.05,4.97,-1.32,-21.24,-11.25,-52.59,45652
6.09,9.76,0.05,0.17,4.50,-2.38,-16.41,-12.61,-55.20,45686
-6.83,9.48,-14.22,0.58,6.84,-3.89,-7.28,-14.86,-57.56,45720
11.25,6.55,0.17,0.10,-1.68,-2.90,-3.52,-15.80,-58.74,45754
-2.15,11.31,-2.54,0.62,0.05,-1.27,-3.67,-17.04,-58.39,45789
3.16,13.28,-1.41,0.11,-2.29,-0.11,-5.74,-17.11,-57.98,45823
2.49,7.97,-4.64,-0.03,-1.32,0.25,-8.14,-17.22,-58.27,45857
-0.67,7.29,-5.34,-0.19,-2.14,0.93,-10.19,-17.22,-57.75,45891
4.75,7.24,-2.65,-0.28,-1.45,0.61,-13.23,-16.19,-57.00,45925
-2.63,8.09,-6.82,-0.38,-1.29,1.24,-15.30,-15.13,-56.40,45959
-2.90,8.54,-2.81,-0.14,-1.51,0.96,-17.64,-14.09,-55.51,45994
-0.71,8.09,-7.42,-0.24,-0.28,0.32,-18.50,-14.18,-56.04,46028
-0.78,7.73,-6.73,-0.12,0.45,-0.03,-17.60,-13.83,-56.58,46062
-2.75,7.79,-4.27,0.07,2.49,-0.52,-14.66,-14.44,-57.79,46096
-7.15,7.59,-3.50,0.54,2.00,-0.74,-11.47,-15.65,-58.67,46130
-2.75,6.20,-3.21,0.72,1.80,-1.02,-8.51,-17.63,-59.31,46165
-3.79,7.86,-5.22,0.81,0.92,-0.92,-6.43,-18.82,-60.22,46199
-0.10,8.90,-3.17,0.88,1.30,-1.06,-4.59,-20.26,-59.68,46233
-3.75,10.09,-1.74,0.85,1.58,-0.93,-1.81,-25.71,-59.63,46267
-6.79,12.17,-0.24,0.61,2.71,-1.37,2.62,-24.54,-59.37,46301
-5.30,12.50,-4.05,0.24,3.55,-1.77,8.58,-24.17,-57.56,46335
-6.79,13.20,-1.60,0.37,5.14,-2.69,17.17,-24.00,-55.38,46370
-3.48,13.02,0.23,0.63,5.59,-4.22,24.44,-22.36,-51.10,46404
-5.93,13.25,1.36,0.52,4.75,-4.18,31.12,-18.82,-46.07,46438
-0.55,11.75,0.52,0.32,0.97,-2.98,34.48,-14.92,-43.15,46472
9.19,14.77,0.50,0.09,-0.04,-0.79,34.87,-13.43,-43.26,46506
8.09,13.45,0.50,-0.27,-0.45,-0.33,34.60,-12.76,-43.04,46541
8.96,8.69,-2.93,-0.62,-0.56,0.05,34.29,-11.85,-44.12,46575
0.72,9.96,-3.46,-0.67,-1.02,0.86,33.15,-12.00,-44.50,46609
-1.27,9.29,0.57,-0.69,-1.11,0.55,32.52,-12.03,-46.14,46643
-4.55,6.62,-11.02,-0.74,-2.29,1.07,30.59,-12.42,-47.98,46677
-4.84,7.03,-4.22,-0.27,-2.28,0.95,28.38,-13.04,-49.96,46711
-5.84,4.49,-11.26,-0.18,-1.32,0.25,26.37,-12.72,-51.21,46746
-4.23,4.31,-7.98,0.12,-2.55,0.72,23.85,-13.58,-53.46,46780
-3.01,6.22,-6.26,0.25,-2.04,0.06,21.31,-14.24,-55.09,46814
-4.75,7.27,-8.70,0.42,-1.04,-0.05,20.48,-14.92,-55.60,46848
-2.90,6.54,-2.43,0.80,-0.88,-0.22,19.09,-15.65,-56.24,46882
-0.81,8.46,-4.62,0.76,-0.17,-0.28,19.58,-16.82,-55.88,46916
-0.63,9.53,-2.80,0.79,0.62,-0.51,20.80,-17.20,-55.39,46951
-2.17,11.36,-1.45,0.97,1.41,-0.86,22.98,-18.17,-53.73,46985
-0.55,11.35,-2.98,0.61,2.71,-1.27,26.19,-17.95,-52.16,47019
-5.86,10.39,-2.08,0.24,3.27,-1.63,29.85,-16.18,-48.68,47053
-2.00,10.30,0.31,0.12,3.55,-1.87,34.74,-14.40,-43.69,47087
-4.49,12.93,-3.97,-0.02,4.75,-2.25,38.16,-11.88,-38.32,47122
-5.97,8.44,0.45,-0.17,4.58,-2.86,41.33,-6.99,-30.43,47156
-3.28,11.17,-5.81,-0.23,3.87,-2.25,42.01,-3.36,-25.29,47190
-3.95,8.32,-1.83,-0.20,2.43,-1.40,41.63,0.28,-21.67,47224
-1.31,9.26,-6.35,0.12,1.15,-1.42,40.57,3.17,-20.01,47258
4.46,11.78,-3.64,0.14,1.81,-1.64,39.62,5.31,-18.11,47292
4.75,9.52,-1.55,-0.04,2.58,-2.01,38.07,7.66,-11.25,47327
2.52,8.06,-4.36,-0.07,2.08,-1.45,36.52,10.03,-11.75,47361
-2.25,6.70,-3.95,0.13,-0.20,-0.24,35.59,10.39,-12.38,47395
-3.89,6.61,-9.12,0.48,-1.10,0.36,35.46,9.91,-14.41,47429
-3.49,7.25,-9.06,0.32,-1.40,0.76,35.68,9.21,-15.93,47463
-4.83,11.09,-2.22,-0.01,-0.52,0.76,35.25,8.42,-16.43,47498
-4.20,14.55,0.97,-0.07,0.98,0.16,34.77,7.67,-16.90,47532
2.91,14.37,2.06,-0.29,2.29,-0.62,34.16,8.11,-14.50,47566
2.50,10.27,-1.37,-0.43,5.84,-3.21,30.84,10.98,-6.36,47600
2.04,2.28,-9.09,-0.23,6.73,-4.95,24.64,14.51,-0.86,47634
1.15,0.48,-7.90,0.21,2.85,-2.75,19.47,16.69,1.53,47668
-0.95,9.89,1.36,0.70,-1.13,-0.91,18.34,16.78,0.63,47703
4.18,9.35,-0.75,0.44,-0.63,-1.26,17.70,17.00,-0.04,47737
1.33,9.49,-5.58,0.29,-1.17,0.01,18.50,16.91,-2.09,47771
-3.70,10.28,-6.06,0.41,-0.93,0.60,19.18,15.24,-3.41,47805
-5.05,11.67,-3.75,0.32,-0.86,0.98,20.37,14.15,-3.71,47839
-6.24,13.89,-1.45,-0.04,0.22,0.87,21.34,13.20,-3.23,47874
-1.16,13.42,-0.08,-0.46,1.03,0.47,21.32,12.63,-2.62,47908
3.17,9.43,-0.81,-0.89,2.77,-0.53,19.94,12.06,0.38,47942
2.33,5.09,-5.26,-0.54,3.70,-1.94,15.96,12.73,3.98,47976
-0.71,3.17,-5.92,-0.14,4.15,-2.82,11.34,13.65,6.49,48010
1.46,4.33,-5.68,0.19,1.74,-2.23,6.55,14.21,7.13,48044
3.66,6.25,-6.54,0.52,-0.11,-1.01,5.89,13.93,6.97,48079
0.24,9.82,-3.55,0.99,-0.89,-0.80,5.45,13.90,6.49,48113
1.35,11.14,-4.94,0.47,-1.17,0.23,6.49,14.06,5.89,48147
-1.73,12.18,-4.35,0.23,-1.22,0.80,7.59,14.16,6.58,48181
-1.75,13.23,-2.05,-0.10,-0.81,1.24,9.32,13.86,7.28,48215
1.01,14.69,1.81,-0.60,-0.21,1.12,10.30,13.21,8.01,48250
6.61,10.71,0.75,-0.77,0.79,0.28,10.20,12.09,8.23,48284
6.37,9.88,1.49,-0.67,2.38,-1.35,7.60,12.38,9.95,48318
-4.48,3.23,-3.38,-0.72,5.25,-2.95,1.13,12.10,11.41,48352
-3.38,2.02,-10.48,-0.75,4.52,-2.28,-4.75,11.75,11.05,48386
6.11,9.36,-12.73,-0.07,0.46,-0.76,-7.41,10.95,11.33,48420
-0.11,8.39,-4.08,0.48,0.06,-1.18,-8.93,10.74,11.33,48455
1.05,11.32,-4.63,0.27,0.28,-0.56,-9.69,10.63,11.46,48489
-2.55,10.56,-4.27,0.03,0.60,-0.29,-10.76,10.03,10.22,48523
-2.07,12.35,0.27,-0.14,-0.01,-0.14,-11.15,9.88,11.20,48557
-0.34,9.99,1.11,-0.35,0.04,-0.23,-11.24,9.30,11.18,48591
0.45,8.40,-1.11,-0.52,0.68,-0.32,-11.81,9.31,10.60,48625
1.69,7.25,-3.18,-0.55,0.44,-0.43,-13.33,8.24,11.27,48660
1.58,5.87,-5.61,-0.42,0.34,-0.30,-13.65,7.19,11.72,48694
1.81,9.54,-3.30,-0.02,-0.29,-0.11,-13.99,7.02,11.33,48728
0.82,9.73,-1.88,0.00,-0.19,-0.41,-13.74,7.25,11.34,48762
-1.37,10.46,-3.14,-0.14,0.21,-0.30,-14.34,6.20,11.53,48796
-4.30,9.07,-4.79,-0.29,0.48,-0.24,-14.62,5.86,11.63,48831
-7.78,6.56,-5.69,-0.23,0.12,-0.38,-14.91,5.36,10.90,48865
-6.16,7.33,-5.76,0.11,-0.63,-0.78,-14.83,4.97,11.02,48899
-3.54,9.28,-4.79,0.31,-1.71,-0.29,-14.09,4.74,12.54,48933
-3.13,11.13,-4.70,0.20,-2.05,0.13,-12.91,4.97,13.71,48967
-2.62,9.38,-7.44,0.11,-2.36,0.50,-10.06,5.19,14.40,49001
-0.42,10.32,-10.26,-0.04,-2.88,0.84,-6.24,5.42,15.49,49036
10.43,9.89,-10.60,0.20,-4.91,1.54,-0.86,5.00,16.14,49070
6.75,8.14,-7.62,0.26,-4.91,1.89,5.63,4.62,15.73,49104
9.46,6.61,-11.35,0.59,-6.07,2.27,12.70,4.55,14.54,49138
7.90,6.25,-5.42,1.01,-6.13,2.07,19.45,4.06,10.01,49172
4.45,5.10,-2.39,1.20,-5.32,1.78,25.97,3.14,4.84,49207
7.61,5.58,1.41,1.29,-3.27,1.43,29.47,1.71,2.25,49241
-2.86,17.24,0.10,0.68,0.91,-0.29,30.33,2.32,3.05,49275
-3.13,6.03,-3.51,0.84,-0.83,-1.02,29.57,3.41,2.32,49309
-5.47,9.96,-8.72,1.08,-0.40,-0.70,30.24,4.47,1.53,49343
-2.41,11.66,-3.35,0.88,-1.22,-0.22,31.48,5.26,0.50,49377
-1.31,10.73,-2.17,0.71,-0.45,-0.26,32.07,6.27,0.07,49412
-2.84,7.88,-0.19,0.60,0.05,0.22,32.53,7.07,-0.54,49446
-1.96,11.46,-1.07,0.50,0.79,0.01,32.36,7.56,0.70,49480
6.63,10.16,-1.22,0.17,1.13,-0.23,31.56,8.36,2.18,49514
11.21,12.83,6.75,-0.06,1.78,-0.89,29.86,9.94,4.18,49548
-0.44,9.85,-2.34,-0.15,2.71,-0.72,27.01,10.68,6.90,49583
-0.66,9.94,1.79,-0.39,3.45,-0.64,24.17,10.49,9.85,49617
4.82,12.66,-4.53,-0.59,4.40,-1.10,19.35,11.55,13.86,49651
0.72,4.76,-3.50,-0.54,4.39,-1.59,12.73,12.00,16.43,49685
-8.37,6.47,-5.13,0.42,3.27,-2.48,6.91,12.85,17.20,49719
-0.67,6.76,-8.32,0.12,0.75,-1.55,3.48,13.93,16.88,49753
-1.16,7.49,-4.08,0.46,-0.20,-0.98,2.18,14.70,16.76,49788
0.65,10.10,-3.54,0.26,-0.66,-0.18,2.10,15.74,15.78,49822
0.53,11.86,-5.23,-0.02,-0.60,0.80,2.97,15.67,15.48,49856
0.21,11.95,-3.36,-0.25,-0.67,0.97,3.83,15.74,16.37,49890
-1.83,11.04,-1.34,-0.45,-0.33,0.55,5.01,15.27,15.26,49924
3.62,12.03,0.06,-0.39,0.15,-0.06,5.64,14.32,15.93,49958
0.91,7.47,-2.39,-0.35,0.86,-1.08,3.57,13.87,17.07,49993
1.11,4.29,-1.16,-0.36,1.88,-1.40,0.92,13.67,17.20,50027
0.26,9.04,-3.94,-0.30,2.11,-1.06,-1.94,13.24,16.33,50061
-2.27,10.58,-5.27,0.06,1.50,-1.18,-5.38,12.80,16.94,50095
-0.31,9.37,-0.42,-0.13,0.82,-1.52,-7.44,12.04,16.28,50129
0.07,10.48,-3.73,-0.54,0.57,-0.93,-9.32,10.90,16.65,50164
-0.61,10.64,-3.57,-0.49,0.31,-0.72,-10.51,10.25,16.02,50198
-0.81,9.44,-3.09,-0.84,1.08,-0.82,-11.78,9.24,17.10,50232
-1.65,9.12,-6.61,-0.82,0.80,-0.34,-13.59,8.18,16.82,50266
-2.26,7.73,-3.04,-0.55,0.63,-0.30,-14.54,7.34,16.66,50300
-5.57,5.94,-4.07,-0.59,0.40,-0.54,-15.70,6.01,16.92,50334
-5.95,5.48,-5.16,-0.29,-0.12,-0.97,-16.12,5.25,16.41,50369
-6.20,9.33,-6.90,-0.09,-0.75,-0.50,-16.22,4.44,16.79,50403
-8.74,6.97,-5.98,0.13,-1.67,-0.36,-14.64,4.52,17.93,50437
-6.48,8.58,-8.65,0.20,-2.70,0.04,-11.82,4.28,19.26,50471
-2.27,10.90,-9.48,0.17,-3.85,0.78,-8.05,4.79,19.51,50505
0.92,11.28,-14.52,0.17,-5.41,1.68,-0.07,4.62,21.06,50540
8.07,8.91,-12.71,0.15,-6.98,2.38,9.03,4.36,18.88,50574
8.51,7.40,-13.19,0.47,-7.68,2.31,19.76,3.13,14.38,50608
11.14,5.88,-15.03,1.01,-7.29,1.51,27.35,2.88,7.97,50642
-2.02,3.31,-2.99,1.90,-5.72,0.47,31.83,3.36,1.55,50676
0.65,20.53,4.36,1.76,-3.79,0.02,34.71,3.64,-3.95,50710
-5.87,11.55,-3.38,1.49,-0.75,-1.55,34.84,5.22,-5.89,50745
3.02,14.46,-0.52,1.09,-1.27,-0.56,34.98,6.66,-8.74,50779
0.29,12.20,4.46,0.55,-0.27,-0.50,34.95,7.29,-9.18,50813
-1.81,12.24,-2.19,0.27,0.31,-0.28,34.51,7.54,-9.46,50847
2.55,12.42,-1.95,0.03,-0.35,0.55,34.27,7.35,-10.00,50881
4.42,11.48,-4.62,-0.14,-0.98,0.91,34.60,6.81,-10.70,50916
6.81,11.32,-5.19,-0.38,-1.69,1.56,35.19,5.31,-12.50,50950
2.16,7.97,-11.70,0.11,-3.58,2.06,36.51,2.82,-15.02,50984
-5.46,-0.02,-15.19,0.81,-6.02,1.68,36.92,1.23,-22.48,51018
-6.80,-2.01,-4.95,2.37,-7.53,2.11,34.83,-3.48,-34.24,51052
12.10,-2.28,7.06,1.48,-4.59,-0.01,32.10,-6.09,-38.56,51086
2.52,6.86,-7.26,1.97,0.36,-0.66,33.73,-6.14,-37.15,51121
-0.47,13.56,2.08,1.57,0.22,-0.27,34.14,-7.48,-36.82,51155
0.52,11.49,-1.13,1.15,0.46,-0.27,34.03,-8.42,-37.93,51189
-5.33,10.16,-0.71,0.96,0.34,0.32,35.05,-10.08,-36.17,51223
-5.42,8.26,-0.38,0.83,1.52,0.15,35.60,-10.10,-34.42,51257
-10.53,8.38,-0.67,0.77,3.17,-0.17,36.67,-10.93,-30.99,51291
-7.98,11.94,-1.28,0.88,4.96,-1.46,38.53,-9.00,-23.69,51326
-2.52,11.95,-0.68,0.52,3.81,-2.02,38.83,-5.90,-19.32,51360
1.43,15.47,1.33,0.48,5.00,-2.40,38.40,-2.21,-11.53,51394
5.37,14.85,2.10,-0.24,4.03,-2.44,36.45,1.52,-6.75,51428
1.01,10.95,-2.50,-0.40,3.51,-1.98,34.51,4.03,-2.59,51462
1.13,9.96,-0.20,-0.40,3.09,-1.49,31.06,5.89,2.84,51497
-0.18,10.32,-2.03,-0.38,2.13,-1.45,27.95,7.15,5.12,51531
3.23,8.88,-0.51,-0.37,2.94,-1.76,25.37,8.08,7.75,51565
1.52,8.23,-0.48,-0.31,2.78,-1.78,21.09,9.53,9.84,51599
6.90,10.16,-2.11,-0.28,2.72,-1.78,17.76,9.76,12.82,51633
-2.28,9.68,-5.85,-0.38,2.58,-1.74,13.26,10.25,13.72,51667
-3.14,9.89,-1.70,-0.27,0.83,-1.46,11.27,10.87,14.94,51702
0.96,7.76,-3.43,-0.25,-0.10,-1.59,9.92,11.27,15.54,51736
2.00,10.86,-2.77,-0.47,-0.54,-0.69,9.98,11.52,15.71,51770
-1.48,9.71,-3.42,-0.57,-0.70,-0.61,9.92,11.11,16.66,51804
-0.35,5.06,-4.85,-0.63,-1.14,-0.70,10.84,10.07,16.52,51838
0.42,9.73,-4.75,-0.70,-1.42,-0.16,12.35,9.51,16.63,51873
-1.66,7.43,-2.79,-0.69,-1.31,-0.11,13.49,9.03,16.19,51907
-4.62,9.14,-4.40,-0.72,-0.92,-0.11,15.08,7.97,16.15,51941
-7.38,6.42,-4.99,-0.33,-1.81,-0.36,16.76,7.37,16.00,51975
-7.50,8.57,-7.13,-0.19,-2.22,-0.02,22.42,6.93,14.89,52009
-2.76,9.82,-9.50,-0.18,-3.10,0.19,22.11,6.64,14.03,52043
4.74,8.37,-13.06,-0.23,-4.10,0.97,25.48,6.45,9.66,52078
1.29,11.40,-14.49,-0.44,-4.84,1.64,31.12,4.36,5.60,52112
9.08,6.50,-23.45,-0.14,-7.73,1.80,36.00,2.65,-2.89,52146
4.47,4.84,-18.23,1.45,-8.45,0.82,39.20,1.37,-17.32,52180
6.20,8.85,-13.21,2.23,-8.59,0.64,38.83,-0.47,-28.11,52214
11.38,5.39,-8.85,2.68,-7.17,0.68,35.75,-2.54,-37.88,52249
9.29,13.83,-0.59,2.44,-2.97,0.21,32.21,-5.88,-43.22,52283
5.24,8.15,-4.03,2.72,-0.33,-0.41,32.04,-7.70,-44.14,52317
3.51,11.27,-2.99,1.98,0.05,0.23,32.62,-9.94,-43.89,52351
1.25,9.88,-2.14,1.73,0.93,-0.19,33.66,-11.63,-42.82,52385
1.90,12.04,-0.39,1.55,1.31,-0.02,34.43,-13.20,-41.48,52419
2.79,11.67,-2.07,1.09,2.43,-0.35,36.03,-12.86,-38.66,52454
-1.67,13.10,-0.72,0.56,2.90,0.04,37.59,-12.67,-34.99,52488
-10.26,13.59,2.35,-0.07,2.92,0.17,38.60,-12.31,-31.89,52522
-4.15,14.07,1.47,0.03,5.57,-1.09,39.49,-10.60,-24.23,52556
-4.41,9.03,-7.43,0.84,9.00,-3.23,39.99,-7.15,-12.88,52590
-10.77,8.27,-10.70,2.11,8.45,-5.40,36.80,1.70,-0.07,52625
0.05,12.22,8.62,1.60,4.20,-5.27,29.92,8.26,4.79,52659
-5.09,18.76,8.75,1.00,2.16,-3.65,25.31,12.29,7.44,52693
4.65,15.70,2.98,0.11,0.77,-2.27,22.77,14.13,7.92,52727
5.62,12.19,0.32,-0.49,0.01,-1.34,21.29,14.79,7.72,52761
1.42,14.55,1.85,-1.05,-0.05,0.41,21.22,14.00,8.67,52795
1.62,12.40,0.42,-1.66,0.15,0.46,21.46,12.60,10.60,52830
0.13,8.11,-3.22,-1.94,-0.11,0.62,21.34,10.27,11.02,52864
-2.23,5.75,-7.47,-1.77,0.13,0.64,22.05,7.61,13.24,52898
-2.06,5.97,-9.82,-1.25,-0.05,-0.30,22.29,6.30,13.84,52932
-5.77,5.04,-10.32,-0.86,-0.46,-1.00,21.72,5.88,14.78,52966
-3.86,6.04,-10.02,-0.51,-1.70,-1.26,22.92,6.53,13.14,53000
-5.83,9.25,-11.85,-0.19,-3.64,-0.49,25.04,6.88,11.36,53035
0.65,10.77,-11.12,-0.17,-5.58,0.00,30.05,6.49,6.11,53069
0.88,10.38,-12.43,-0.10,-4.87,0.26,32.72,7.22,-0.26,53103
2.63,6.53,-20.48,0.22,-6.43,0.96,35.36,6.69,-7.47,53137
8.18,5.81,-18.73,1.36,-8.66,1.18,36.96,4.28,-20.40,53171
6.24,4.93,-15.27,2.19,-9.22,0.79,34.87,2.48,-32.23,53206
17.82,10.52,-14.69,2.79,-8.18,0.80,29.48,-0.58,-42.91,53240
11.75,9.55,-14.70,3.23,-3.72,0.68,24.80,-4.98,-46.89,53274
5.56,10.84,-1.41,2.52,0.29,0.44,23.74,-8.65,-47.24,53308
-1.38,12.47,3.76,2.17,2.02,-0.00,26.34,-11.59,-45.70,53342
-2.93,12.59,1.84,1.78,3.36,-0.50,29.01,-13.05,-41.77,53376
-2.34,12.61,2.67,1.47,4.15,-1.04,31.88,-13.48,-37.28,53411
-9.29,13.23,-1.54,1.28,6.96,-2.15,35.06,-11.33,-27.38,53445
-11.22,12.47,-7.57,0.82,5.81,-3.13,36.01,-7.88,-20.75,53479
6.63,15.05,-1.17,0.50,3.08,-2.97,35.60,-4.09,-13.91,53513
2.05,13.72,-0.10,0.52,4.43,-3.11,33.98,-1.18,-7.75,53547
-3.71,14.99,0.49,0.23,4.16,-3.22,31.76,2.37,-2.10,53582
-3.47,14.10,2.73,-0.10,3.65,-3.53,27.68,5.98,4.02,53616
-1.88,11.78,0.15,-0.46,2.90,-2.80,23.93,8.45,8.08,53650
-3.01,13.75,4.87,-0.66,3.14,-2.81,19.58,10.80,11.91,53684
2.15,10.23,3.50,-1.06,2.03,-2.52,16.30,11.50,13.87,53718
-1.80,15.21,-4.75,-1.13,1.29,-1.31,13.53,11.84,15.46,53752
0.13,8.94,-2.77,-1.15,0.02,-1.12,11.93,11.78,16.88,53787
0.19,4.84,-4.31,-1.15,-1.23,-0.39,12.70,10.96,17.20,53821
-0.81,8.01,-5.58,-1.07,-1.75,0.63,18.20,9.32,17.11,53855
-2.77,8.34,-6.71,-0.96,-2.16,0.42,17.63,8.13,17.26,53889
-4.63,6.73,-7.26,-0.68,-2.19,-0.31,19.95,7.91,16.06,53923
-1.60,7.83,-8.24,-0.55,-2.76,-0.14,22.92,7.45,14.43,53958
-0.95,7.65,-8.73,-0.49,-3.38,0.34,25.75,7.19,11.71,53992
-0.37,9.56,-11.10,-0.42,-3.84,0.75,29.20,6.55,8.48,54026
0.72,8.70,-15.46,0.16,-5.58,0.74,34.23,6.07,3.05,54060
8.12,7.31,-18.70,0.86,-7.20,0.90,37.50,5.32,-6.12,54094
8.22,9.19,-12.89,1.89,-7.55,1.16,39.62,4.47,-18.31,54128
11.44,0.47,-5.67,2.39,-7.02,1.23,38.53,2.75,-28.75,54163
-1.12,11.78,-2.11,2.10,-3.95,0.50,37.20,0.41,-35.33,54197
0.88,11.91,-6.83,2.04,0.62,-0.43,36.45,-0.95,-36.48,54231
-3.13,10.40,-6.28,1.84,0.25,0.25,36.42,-1.87,-36.61,54265
-4.97,8.95,0.67,1.54,0.72,-0.01,36.73,-3.76,-36.58,54299
-2.83,11.38,-2.26,1.36,2.12,-0.56,37.11,-3.77,-34.64,54333
-0.00,11.23,0.71,1.19,3.42,-0.95,38.10,-3.14,-31.06,54368
-5.30,13.41,0.61,0.67,4.25,-1.46,38.21,-1.68,-25.04,54402
-4.79,14.74,0.56,0.38,4.82,-1.99,37.90,0.69,-18.85,54436
-0.62,11.92,-0.84,0.16,4.81,-2.76,36.38,3.52,-13.91,54470
-2.07,12.37,1.29,-0.30,5.80,-3.16,32.53,7.13,-5.93,54504
-3.22,14.66,0.33,-0.41,5.34,-3.17,27.78,9.84,0.15,54539
-2.97,7.65,-1.35,-0.71,4.23,-3.38,21.89,11.82,5.47,54573
-4.66,9.22,-2.25,-0.91,5.03,-3.22,16.41,12.80,10.33,54607
-1.28,4.37,-3.98,-1.09,0.91,-2.14,12.13,12.74,12.13,54641
-3.82,8.79,-3.51,-1.09,-0.93,-0.85,11.60,12.07,13.08,54675
-2.43,9.38,-6.55,-0.79,-2.51,-0.48,12.74,11.40,13.33,54709
-3.11,9.78,-5.87,-0.45,-2.80,-0.19,16.06,10.82,12.35,54744
0.55,9.02,-7.75,-0.40,-3.37,0.12,18.69,10.60,10.84,54778
-1.03,7.05,-10.91,-0.27,-3.88,0.52,22.20,9.91,8.97,54812
0.09,6.93,-12.91,-0.12,-4.52,1.28,27.08,8.81,5.01,54846
6.54,6.40,-13.15,0.15,-5.50,1.53,31.72,7.88,-0.32,54880
2.76,8.28,-15.04,0.43,-6.10,1.34,34.52,6.50,-10.55,54915
2.74,6.75,-16.21,1.15,-6.79,1.64,36.98,4.49,-17.38,54949
16.41,7.91,-12.45,1.71,-7.34,1.64,36.93,1.91,-27.78,54983
-1.19,7.13,-5.93,2.16,-3.53,0.18,35.50,-0.64,-33.86,55017
-0.42,8.02,-7.78,2.36,-1.99,0.17,34.55,-2.35,-37.68,55051
5.28,11.25,-5.39,2.16,-0.83,0.23,34.43,-4.36,-39.48,55085
0.43,10.75,-3.69,1.96,0.55,0.18,35.55,-6.30,-39.73,55120
-1.70,12.78,1.64,1.72,1.22,-0.01,36.41,-7.54,-38.28,55154
0.39,12.40,3.44,1.41,2.08,-0.32,37.99,-7.88,-35.34,55188
-0.75,11.77,-1.02,1.02,3.78,-0.81,39.86,-7.00,-31.09,55222
-4.89,10.63,-4.40,0.78,4.51,-1.22,41.00,-5.28,-25.56,55256
-3.31,12.42,-1.56,0.47,5.60,-2.03,41.30,-1.27,-16.09,55291
-6.31,12.53,-3.05,0.28,6.24,-3.29,39.39,3.29,-8.07,55325
-0.03,14.03,1.93,-0.04,6.90,-3.18,35.14,7.82,-1.53,55359
-11.95,15.22,0.26,0.13,6.03,-3.55,27.62,12.25,5.90,55393
-3.32,11.24,3.87,-0.21,3.93,-3.29,21.81,14.81,8.42,55427
-10.18,15.66,-2.96,-0.49,4.19,-3.30,14.60,16.30,10.17,55461
-0.77,6.52,-0.02,-0.65,1.04,-2.75,11.63,16.68,10.77,55496
1.12,8.90,-6.31,-0.91,-0.62,-1.26,9.12,16.34,10.80,55530
-2.32,8.59,-3.98,-0.79,-1.58,-0.89,10.00,15.51,10.65,55564
-1.60,5.19,-6.97,-0.72,-2.39,-0.70,10.80,14.15,10.38,55598
-0.81,7.23,-9.22,-0.60,-3.72,0.00,12.66,13.45,8.42,55632
-0.60,7.68,-12.30,-0.44,-4.38,0.52,17.35,11.34,5.96,55666
1.01,6.21,-15.00,-0.23,-5.43,1.27,21.31,9.30,2.63,55701
5.79,7.86,-15.36,0.27,-6.58,1.53,27.19,6.15,-3.86,55735
8.64,5.80,-17.35,0.81,-6.92,1.48,30.85,3.38,-9.88,55769
7.33,7.63,-9.72,1.45,-6.95,1.51,33.47,1.27,-18.20,55803
2.46,8.82,-7.39,1.56,-5.42,0.98,34.49,-1.81,-24.80,55837
9.98,7.82,-10.88,2.13,-4.75,0.45,34.27,-3.17,-31.19,55872
6.67,10.84,-5.55,2.25,-1.77,0.46,34.04,-4.97,-34.01,55906
2.60,9.93,-3.13,2.22,-1.19,0.52,33.35,-6.31,-36.36,55940
1.33,10.92,0.65,1.93,0.29,0.41,33.63,-8.30,-36.71,55974
-0.30,11.36,0.64,1.40,1.21,0.19,33.51,-8.94,-35.11,56008
0.72,12.98,1.13,1.14,2.50,-0.22,34.42,-9.28,-32.08,56042
-3.97,12.89,1.75,0.48,4.67,-1.53,35.88,-7.89,-25.27,56077
-1.77,14.09,-0.62,0.19,4.74,-2.16,36.71,-6.15,-19.98,56111
-2.93,6.08,-6.88,0.05,6.16,-3.17,35.94,-2.56,-12.26,56145
-7.26,8.58,-5.84,0.04,4.77,-2.84,33.50,1.39,-5.82,56179
-6.68,11.20,-0.63,0.05,3.57,-2.32,30.99,3.46,-1.21,56213
-4.95,11.91,0.42,-0.13,3.30,-2.75,28.37,6.15,2.00,56248
-3.41,10.71,-2.44,-0.61,2.40,-2.12,24.73,7.92,5.42,56282
-2.40,13.56,-0.16,-0.69,1.24,-1.78,23.02,9.05,7.45,56316
-0.75,7.93,-2.16,-0.87,0.33,-1.62,21.00,9.97,9.51,56350
1.19,11.12,-0.22,-0.91,-0.46,-0.69,20.62,9.88,9.24,56384
-0.78,8.23,-3.84,-0.98,-0.96,-0.39,20.97,10.01,9.84,56418
1.01,4.30,-3.87,-1.08,-1.88,0.08,22.36,9.41,9.82,56453
-1.46,6.10,-15.34,-1.10,-2.03,0.62,24.33,8.37,8.21,56487
-2.03,4.49,-10.33,-0.61,-2.93,0.11,26.91,7.51,6.46,56521
-1.31,6.68,-14.11,-0.27,-3.59,-0.00,29.19,7.91,2.97,56555
2.92,5.96,-15.61,0.35,-4.73,0.69,32.51,7.94,-1.24,56589
7.93,9.28,-12.06,0.77,-5.61,1.56,35.97,6.50,-9.69,56624
7.28,7.63,-6.51,1.13,-6.40,2.24,37.59,4.28,-17.96,56658
9.44,12.69,-0.29,1.10,-5.36,2.23,37.88,1.49,-25.96,56692
8.29,9.95,-2.85,0.95,-4.17,1.52,35.81,-1.45,-32.17,56726
2.03,8.44,-7.05,0.82,-2.30,0.96,34.61,-3.98,-35.08,56760
-7.20,4.43,-10.29,1.31,-3.43,1.00,32.42,-6.69,-39.87,56794
-11.18,4.56,-3.93,1.87,-0.92,-0.11,30.69,-8.83,-41.03,56829
-4.15,4.99,-7.10,1.98,-0.71,-0.15,31.67,-10.65,-42.25,56863
0.59,7.83,-2.22,2.12,0.56,-0.20,32.32,-13.02,-40.82,56897
-3.12,8.17,-0.28,1.79,3.49,-0.92,34.45,-13.59,-37.47,56931
2.35,14.52,0.79,1.46,4.75,-1.01,36.99,-13.07,-30.01,56965
-0.17,11.65,-0.52,1.03,6.12,-2.19,39.20,-10.45,-21.65,57000
-1.84,11.69,-5.38,0.63,5.50,-2.59,38.78,-6.62,-13.49,57034
-4.93,17.69,1.63,0.67,6.60,-3.20,35.59,-0.99,-4.08,57068
-5.59,16.23,2.59,0.31,6.55,-3.62,31.32,3.54,3.00,57102
-6.07,15.91,6.15,-0.24,4.78,-2.67,25.87,6.30,7.67,57136
1.67,14.96,5.14,-0.82,3.67,-2.45,19.96,7.48,11.11,57170
-1.97,8.58,-1.05,-1.33,2.60,-1.91,16.65,8.51,13.61,57205
-4.12,7.61,-4.84,-1.11,2.75,-1.57,12.64,7.56,15.96,57239
-2.70,8.59,-6.07,-1.03,0.02,-1.66,11.09,7.47,16.62,57273
-1.51,5.53,-8.30,-0.87,-1.13,-1.73,11.55,7.09,15.93,57307
-1.49,7.06,-10.72,-0.92,-2.62,-1.05,13.10,6.58,14.97,57341
0.71,6.96,-14.82,-0.77,-4.35,-0.57,17.04,5.76,12.50,57375
3.24,5.75,-24.34,-0.43,-7.25,0.33,21.51,4.74,7.32,57410
14.91,1.87,-29.83,0.32,-11.30,1.59,30.15,2.46,-4.12,57444
9.39,9.85,-15.81,1.59,-11.90,1.11,33.89,-0.10,-16.38,57478
19.54,5.17,-22.08,2.57,-12.11,0.42,32.01,-3.95,-32.78,57512
15.83,14.34,-7.83,3.55,-6.24,0.11,29.28,-6.14,-38.99,57546
5.67,8.51,-4.99,3.26,-1.64,0.20,28.41,-9.49,-41.79,57581
-5.06,10.80,-4.56,2.89,0.18,0.59,29.44,-13.40,-42.40,57615
-5.32,11.50,3.42,2.64,2.06,0.09,31.44,-15.71,-40.62,57649
1.71,13.72,4.88,1.88,4.57,-1.02,35.02,-16.34,-34.42,57683
-3.38,13.27,1.33,1.31,5.63,-2.15,38.31,-14.50,-27.87,57717
-7.01,13.57,-3.57,0.97,6.28,-3.11,39.86,-10.96,-19.73,57751
-9.99,12.04,-4.72,0.97,7.13,-4.09,39.48,-3.87,-10.07,57786
-6.26,13.61,-4.61,0.66,6.74,-4.44,35.60,2.34,-1.55,57820
-11.26,12.93,-4.06,0.37,6.71,-4.90,29.89,8.24,6.80,57854
-4.17,13.76,1.05,-0.11,4.87,-4.33,20.93,13.34,10.61,57888
-10.93,14.16,3.51,-0.41,4.63,-4.34,13.11,16.06,13.23,57922
-3.26,13.11,1.04,-0.82,2.48,-3.41,5.85,17.38,14.32,57957
-0.11,11.87,4.10,-0.99,1.21,-2.60,2.28,16.78,15.13,57991
1.31,10.16,-2.21,-1.29,0.12,-1.49,0.19,16.18,15.81,58025
-3.56,11.71,-2.45,-1.11,-1.68,-0.38,-0.34,15.40,17.42,58059
-1.26,8.72,-6.48,-1.28,-2.24,-0.20,1.87,14.26,17.17,58093
-1.85,8.39,-9.32,-1.18,-3.01,0.78,5.88,12.41,18.23,58127
1.42,8.27,-9.54,-1.36,-3.88,1.89,10.87,10.48,17.86,58162
1.98,6.70,-10.71,-1.54,-4.66,2.33,17.01,8.01,16.06,58196
-0.35,4.42,-13.85,-1.28,-5.34,1.77,23.82,4.79,11.88,58230
0.92,4.92,-14.52,-0.72,-5.07,0.81,28.75,3.19,7.61,58264
1.43,7.96,-13.53,-0.13,-5.43,0.01,32.34,2.88,0.57,58298
-2.05,8.91,-11.79,0.94,-5.59,-0.61,34.32,3.38,-6.69,58333
2.92,8.16,-12.99,1.65,-6.63,-0.87,34.39,3.98,-15.74,58367
7.97,10.33,-11.56,2.16,-4.61,-0.78,33.08,3.58,-22.95,58401
5.83,13.08,-7.45,2.05,-3.12,-0.18,31.73,1.61,-28.05,58435
7.73,10.87,-1.59,1.98,-2.16,-0.01,31.34,-0.75,-30.65,58469
3.44,10.52,1.17,1.60,-1.43,0.63,30.56,-3.48,-32.91,58503
-1.10,9.49,-1.37,1.39,-0.72,0.49,30.44,-5.23,-33.63,58538
-0.17,8.24,-0.92,1.30,0.08,0.50,31.39,-7.04,-33.51,58572
-1.05,6.56,-3.60,1.37,0.96,-0.03,32.13,-8.71,-33.08,58606
-1.53,10.28,-0.82,1.26,2.20,-0.22,33.12,-9.47,-30.81,58640
-4.32,12.01,-0.09,1.36,3.36,-0.60,35.63,-10.44,-25.94,58674
-3.30,11.05,-1.86,0.98,3.92,-1.10,36.74,-9.53,-20.90,58708
-5.94,11.70,-0.89,0.61,4.02,-1.12,37.68,-8.39,-15.65,58743
-6.00,11.66,-3.25,0.20,4.31,-1.37,37.09,-6.09,-10.70,58777
-1.87,14.22,0.17,-0.12,4.27,-1.07,36.17,-4.52,-5.22,58811
-0.32,14.29,1.28,-0.54,5.83,-1.51,31.99,-1.70,2.34,58845
5.51,9.58,-6.28,-0.92,6.05,-2.14,27.14,0.72,9.09,58879
3.08,11.31,3.18,-1.12,3.27,-1.41,23.47,1.58,13.75,58914
2.38,10.01,1.56,-1.16,2.47,-1.29,19.06,2.12,16.25,58948
-4.07,9.50,-0.02,-1.20,1.57,-1.16,16.82,1.52,17.48,58982
-2.85,8.48,-3.79,-1.35,0.38,-1.13,15.64,0.79,19.10,59016
-0.31,6.22,-7.19,-0.90,0.38,-1.61,14.95,0.18,19.69,59050
-0.81,7.19,-4.20,-0.43,0.17,-1.97,14.15,0.86,20.01,59084
-2.87,5.68,-4.06,-0.18,-0.05,-2.18,13.90,2.18,20.11,59119
-2.84,9.07,-2.54,-0.16,-0.74,-2.12,14.37,2.54,20.14,59153
4.43,5.47,-4.24,-0.19,-2.17,-1.69,16.33,3.80,19.45,59187
0.58,10.76,-5.13,-0.06,-2.32,-1.08,17.99,5.54,17.30,59221
-0.26,10.48,-4.81,-0.10,-3.85,-0.53,21.84,6.64,15.49,59255
-0.69,8.61,-8.42,-0.13,-4.26,-0.36,26.48,7.23,11.27,59290
-2.90,10.91,-9.57,-0.33,-4.87,0.07,29.67,7.12,6.20,59324
7.44,13.60,-5.32,-0.69,-4.45,-0.08,32.77,7.15,0.99,59358
7.09,13.42,-2.62,-0.97,-2.34,-0.28,34.35,6.65,-2.46,59392
3.74,16.98,1.67,-1.67,0.27,-0.47,34.45,6.02,-2.06,59426
0.32,20.73,0.30,-2.11,2.24,-1.55,32.55,5.60,0.94,59460
-2.08,12.20,-1.29,-2.04,3.49,-3.09,29.55,6.46,5.77,59495
13.92,2.80,-14.23,0.41,8.74,-4.50,21.73,8.77,10.99,59529
-11.81,8.20,3.81,0.45,8.75,-3.52,8.24,11.37,16.37,59563
2.92,4.40,-10.47,-0.05,6.04,-1.21,0.66,10.38,16.53,59597
-25.34,15.06,-0.54,-0.82,1.67,-0.69,-5.25,8.36,17.03,59631
2.75,7.69,0.81,-2.01,-1.20,-0.08,-4.62,5.80,16.91,59666
-7.64,11.29,-0.57,-1.11,3.07,-0.70,-6.81,3.30,17.38,59700
-9.96,9.12,-4.86,-1.83,2.01,-0.54,-10.35,-0.88,16.85,59734
-8.25,9.30,-1.14,-3.02,-0.35,-0.16,-10.17,-4.28,17.26,59768
-1.55,9.58,0.20,-3.08,0.71,0.27,-11.24,-10.30,17.26,59802
-4.25,10.37,-3.29,-2.99,2.47,0.36,-13.86,-15.05,15.73,59836
-0.70,8.87,-4.29,-3.26,3.00,0.51,-18.68,-18.50,13.08,59871
-0.51,8.46,-5.79,-3.23,3.04,0.91,-24.26,-21.32,9.03,59905
-1.29,9.45,-9.99,-2.71,3.30,1.50,-28.34,-22.58,4.69,59939
-1.12,8.59,-8.33,-2.53,1.89,2.55,-32.84,-21.81,1.02,59973
-1.33,10.87,-8.44,-2.17,0.24,3.89,-35.82,-18.88,-0.38,60007
-0.03,11.16,-7.48,-1.89,-0.14,4.59,-37.50,-13.99,-0.18,60041
-0.76,12.20,-5.08,-1.13,-0.57,5.29,-38.54,-6.36,0.64,60076
0.44,14.76,-5.41,-0.36,-1.07,5.79,-37.37,1.40,1.78,60110
3.82,13.92,-6.36,-0.02,-1.29,5.49,-34.27,8.40,4.15,60144
3.84,12.17,-4.30,0.45,-1.64,4.30,-29.63,14.86,6.53,60178
4.09,11.24,-3.25,0.80,-1.34,2.74,-25.99,18.24,6.87,60212
0.61,11.08,-2.23,1.10,-0.70,0.89,-23.57,20.75,7.35,60247
3.71,10.49,-1.37,1.26,0.03,-0.32,-22.84,22.13,5.99,60281
-0.14,7.64,-0.95,1.38,1.35,-0.68,-23.95,23.28,4.38,60315
-0.50,6.12,-0.50,1.34,1.98,-0.37,-25.52,23.88,0.99,60349
0.14,6.58,-2.27,1.23,2.25,0.16,-26.38,24.88,-2.56,60383
-0.64,7.92,-1.76,1.15,1.81,0.28,-26.73,26.13,-5.90,60417
1.03,8.87,-1.86,1.22,0.95,0.16,-26.98,26.45,-8.01,60452
2.10,9.54,-1.27,1.25,0.45,-0.38,-26.54,27.24,-9.73,60486
3.58,9.21,-0.35,1.23,0.59,-0.88,-27.23,27.08,-12.26,60520
2.50,8.84,0.41,1.20,1.30,-1.21,-28.84,26.34,-14.37,60554
2.85,9.39,-0.40,1.21,1.90,-1.34,-30.04,25.68,-18.08,60588
3.42,9.91,-0.51,1.22,2.39,-1.55,-31.16,23.85,-21.46,60623
2.73,9.31,-1.40,1.22,2.07,-1.52,-32.46,23.15,-25.14,60657
1.91,9.14,-1.06,1.13,1.62,-1.33,-33.35,21.60,-28.46,60691
3.03,9.59,-2.11,1.11,1.27,-1.09,-33.85,20.13,-30.21,60725
1.74,8.39,-2.93,1.13,0.73,-0.75,-33.73,18.62,-32.81,60759
-0.43,12.18,-5.53,1.17,0.21,-0.41,-33.91,18.61,-33.69,60793
5.55,3.14,4.66,1.43,4.10,-1.87,-33.97,19.00,-35.75,60828
