ax,ay,az,gx,gy,gz,mx,my,mz,timestamp
4.04,-9.31,-0.92,0.96,0.47,0.23,-44.97,31.83,21.66,238269
3.55,-9.10,0.39,2.34,0.69,-0.29,-46.78,34.61,18.30,238303
4.81,-8.38,1.66,0.10,-0.45,-0.04,-46.62,35.47,17.04,238337
2.77,-9.50,1.39,-1.96,-1.39,-0.16,-44.43,32.02,20.33,238372
4.61,-8.19,-2.03,-2.50,-1.55,0.08,-40.88,27.95,25.86,238406
3.75,-8.60,-2.51,-0.51,-0.02,-0.32,-40.31,25.53,28.08,238440
3.36,-8.29,-2.02,0.51,0.42,0.18,-40.95,25.77,27.04,238474
3.11,-8.47,-1.31,0.15,0.22,-0.09,-41.33,26.43,26.56,238508
3.94,-9.74,-0.76,0.01,-0.03,-0.22,-42.24,26.35,26.22,238542
3.29,-9.08,-0.97,0.41,-0.11,-0.14,-42.15,26.21,26.00,238577
4.15,-8.99,-1.07,0.22,-0.16,-0.07,-41.99,26.81,25.67,238611
4.16,-8.71,-1.76,0.24,-0.02,-0.06,-42.25,26.66,25.31,238645
4.36,-8.76,-0.76,0.68,0.24,-0.14,-42.93,27.04,23.84,238679
4.47,-7.67,0.09,0.22,-0.08,-0.14,-42.55,27.57,23.11,238713
4.40,-9.48,-0.94,0.24,-0.22,-0.00,-42.62,27.55,23.68,238748
3.53,-8.91,-0.76,0.25,-0.33,0.03,-41.23,27.93,24.57,238782
4.01,-9.73,-0.83,0.20,-0.31,-0.21,-41.63,27.58,24.51,238816
3.85,-9.06,-0.84,0.93,-0.15,-0.20,-41.30,28.95,23.90,238850
3.82,-9.19,-0.33,1.23,0.06,-0.33,-41.76,30.50,22.60,238884
3.25,-12.46,1.02,1.45,0.11,-0.44,-42.58,31.29,20.64,238918
3.98,-8.03,0.23,1.58,0.14,-0.54,-43.67,32.81,18.24,238953
3.80,-8.23,0.56,0.99,0.13,-0.23,-43.89,33.18,16.92,238987
4.28,-8.89,1.36,0.98,0.11,-0.22,-44.83,34.83,15.27,239021
3.62,-7.93,1.10,0.31,-0.07,-0.20,-44.61,34.43,14.50,239055
3.79,-9.20,1.28,-0.61,-0.82,0.38,-43.66,34.24,15.99,239089
4.12,-7.55,0.45,-1.21,-0.26,0.47,-41.99,32.86,18.44,239124
2.26,-9.35,-0.04,0.13,0.10,0.28,-41.32,32.33,19.54,239158
4.15,-7.21,-0.51,0.33,-0.33,0.04,-40.68,32.58,19.51,239192
4.21,-9.93,-0.02,-0.83,-0.26,0.48,-39.75,31.79,21.06,239226
3.38,-7.49,0.03,0.72,-0.48,-0.11,-39.92,33.24,21.29,239260
3.28,-8.88,0.00,-0.79,-1.02,-0.32,-39.18,32.15,23.03,239294
4.52,-11.20,0.10,0.58,-0.27,0.47,-38.09,31.88,23.60,239329
4.46,-8.82,0.21,0.97,0.54,0.12,-37.24,33.92,22.13,239363
5.04,-10.76,0.34,-0.67,0.61,-0.12,-39.16,34.71,20.53,239397
-0.95,-8.63,0.15,0.44,0.42,0.35,-39.84,35.22,19.34,239431
0.33,-10.74,-0.33,0.75,-0.08,0.63,-39.14,35.28,19.48,239465
4.01,-11.09,0.52,0.46,-0.61,-0.39,-38.21,35.88,18.93,239500
2.20,-8.65,0.88,0.77,-0.63,-0.82,-38.85,36.29,19.03,239534
3.55,-8.16,1.45,1.31,-1.25,0.06,-37.59,37.15,18.14,239568
3.68,-8.61,1.81,0.97,-1.07,-0.02,-36.33,38.31,18.17,239602
4.49,-8.53,0.62,0.15,-1.03,-0.05,-35.37,38.83,18.85,239636
4.10,-9.09,1.76,-0.54,-0.52,-0.01,-34.22,38.48,20.67,239670
3.52,-10.74,2.59,-0.13,-0.63,0.26,-33.24,38.10,21.67,239705
1.73,-10.40,-0.56,0.99,-1.06,0.09,-31.67,40.08,21.95,239739
3.35,-7.83,1.98,-0.46,-1.31,-0.21,-30.01,39.78,22.89,239773
0.76,-9.33,2.39,0.60,-2.10,0.26,-27.97,40.25,24.04,239807
4.61,-5.69,-1.22,2.17,-1.74,0.50,-23.90,42.97,22.68,239841
3.20,-8.38,-3.89,-0.10,-1.11,0.34,-21.98,44.87,23.43,239875
6.47,-8.69,-0.03,-0.18,-1.63,-0.80,-20.42,42.85,25.17,239910
3.14,-6.69,-0.73,-0.96,-1.36,-0.14,-18.20,40.97,27.08,239944
13.67,-14.38,-2.69,-0.72,-0.50,-0.00,-16.56,39.23,29.44,239978
2.37,-6.75,-2.01,0.94,0.49,-0.08,-17.60,40.75,27.57,240012
5.36,-8.43,-2.01,-0.29,-1.27,-0.95,-17.42,40.22,29.17,240046
6.15,-7.37,-1.81,0.18,-1.79,-0.68,-16.12,40.09,29.68,240081
5.53,-11.12,-1.37,1.06,0.22,-0.29,-15.43,40.54,29.73,240115
6.77,-9.52,1.35,2.16,0.33,1.03,-15.51,42.74,26.09,240149
5.12,-7.76,1.12,0.30,0.94,0.62,-16.06,44.58,24.96,240183
2.85,-8.34,0.42,-4.13,1.30,0.18,-18.74,42.59,28.90,240217
2.12,-10.55,-1.46,-1.51,0.42,0.49,-19.39,39.49,33.27,240251
3.32,-9.37,-1.25,-0.59,0.29,0.34,-20.20,38.91,33.85,240286
1.96,-8.56,-0.63,-0.60,0.56,0.33,-20.45,38.37,34.87,240320
1.17,-9.10,-1.91,-0.02,-0.38,0.06,-20.75,38.15,35.71,240354
2.35,-8.99,-1.47,-0.28,-0.44,-0.20,-21.00,38.00,37.28,240388
2.06,-10.17,-1.77,-0.19,-0.31,-0.05,-19.99,37.71,37.55,240422
2.12,-9.46,-0.86,-0.01,-0.19,0.01,-19.80,37.87,37.65,240457
2.32,-9.22,-2.11,0.06,-0.39,-0.12,-20.10,37.21,37.74,240491
3.27,-8.84,-1.80,-0.01,-0.49,-0.17,-19.45,36.74,38.40,240525
0.95,-10.50,-2.29,0.33,0.00,0.04,-19.13,37.15,38.67,240559
0.29,-11.17,-0.29,0.02,-0.03,0.02,-19.15,38.18,37.39,240593
2.22,-9.64,-0.56,0.07,-0.30,-0.05,-19.06,38.18,38.19,240627
1.14,-9.89,0.40,0.01,-0.23,-0.00,-19.00,38.06,38.18,240662
1.65,-10.30,0.59,-0.13,-0.20,-0.10,-18.50,38.09,38.32,240696
1.19,-10.57,1.15,-0.38,0.01,-0.17,-18.80,36.98,38.44,240730
-0.28,-10.50,0.45,-0.37,0.30,0.07,-19.03,36.36,39.33,240764
-1.39,-10.89,-0.18,-0.48,0.58,0.25,-18.78,34.96,38.86,240798
0.60,-10.42,-1.16,-0.30,0.90,0.50,-19.09,35.14,38.23,240833
0.46,-10.36,-0.35,-0.21,1.33,0.69,-19.57,35.36,36.88,240867
0.26,-10.57,-0.53,-0.31,1.37,0.63,-20.39,34.29,36.00,240901
1.31,-10.02,-0.66,-0.28,1.02,0.41,-20.30,34.46,34.86,240935
2.88,-7.91,-1.34,-0.05,0.88,0.35,-20.51,34.39,34.10,240969
2.92,-3.85,-0.74,-0.25,0.96,0.40,-20.51,34.03,32.86,241003
-0.98,-18.20,15.35,-1.31,0.49,2.33,-19.18,33.85,32.81,241038
4.78,-27.11,1.46,-4.16,-0.53,-1.96,-19.32,31.88,32.04,241072
13.12,-2.91,-3.92,-0.50,0.51,-0.97,-21.34,31.86,32.89,241106
0.04,-11.38,-4.25,-0.26,0.53,-0.25,-22.49,30.52,33.28,241140
2.75,-10.13,-3.26,0.04,0.43,0.01,-22.65,31.23,32.56,241174
3.28,-8.38,-3.28,0.35,0.26,0.41,-22.08,31.41,31.16,241208
2.28,-7.66,-2.43,0.24,0.02,-0.13,-21.70,32.52,30.01,241243
2.19,-10.19,-1.99,0.16,0.37,-0.15,-21.67,32.87,30.42,241277
1.04,-8.90,-1.50,0.22,0.72,0.03,-22.03,33.24,28.87,241311
1.19,-9.76,-1.89,0.18,0.69,-0.14,-23.30,33.34,27.73,241345
1.48,-9.86,-2.26,0.16,0.73,-0.43,-23.60,33.47,26.70,241379
3.42,-9.41,-4.33,-0.11,1.40,-0.32,-24.73,32.89,25.10,241414
3.34,-7.95,0.86,0.38,1.54,-0.23,-26.57,32.59,22.55,241448
2.91,-8.10,-0.15,1.08,-0.29,-0.70,-26.75,33.25,21.15,241482
-0.19,-12.03,-7.16,0.94,-0.92,-1.43,-26.34,33.66,20.70,241516
-8.00,-12.76,-11.12,1.29,0.25,-2.23,-27.93,32.33,18.21,241550
-6.31,-21.80,-12.71,0.03,-0.46,-3.53,-29.26,29.82,15.70,241584
16.00,1.23,-30.98,-1.12,-1.36,-5.76,-32.08,23.75,13.99,241619
-27.60,-24.21,-6.94,1.57,-3.84,-1.91,-28.53,18.34,16.84,241653
5.59,-0.82,-2.91,-0.28,-8.19,-3.32,-17.83,13.88,19.92,241687
11.44,-8.49,0.72,0.49,-4.28,-0.26,-8.27,12.72,17.55,241721
5.29,-3.19,5.09,1.93,-0.76,3.87,-3.00,13.94,12.91,241755
7.48,-6.19,2.05,1.97,-0.50,5.36,4.59,14.72,7.95,241790
7.42,-5.17,2.22,2.66,-0.69,6.08,10.64,13.88,3.10,241824
12.62,-7.80,-3.66,3.58,-2.92,5.02,17.64,11.68,-2.06,241858
3.59,-17.98,-22.27,3.67,-1.41,5.84,24.12,7.66,-7.48,241892
17.59,2.90,-6.07,1.65,4.12,0.87,25.20,5.79,-6.55,241926
-2.92,-11.29,-3.04,0.25,0.74,2.79,25.72,2.86,-4.08,241960
-2.63,-10.06,0.89,0.52,0.40,-0.00,26.78,2.75,-4.56,241995
6.36,-10.75,0.33,0.21,1.08,-0.07,27.67,2.31,-3.60,242029
2.97,-9.08,-0.91,1.00,2.09,1.32,28.27,1.62,-1.90,242063
-6.88,-9.97,-0.62,0.76,1.01,0.76,28.87,1.77,-1.93,242097
-3.14,-9.18,-4.23,0.83,0.29,-0.21,29.70,2.44,-2.81,242131
-4.31,-9.27,0.56,0.49,0.54,-0.02,30.61,2.37,-2.62,242166
-6.54,-8.83,-0.33,0.53,-1.28,-0.20,31.54,3.30,-4.63,242200
-0.12,-8.45,-5.02,0.40,-1.54,-0.84,32.77,3.98,-8.14,242234
0.52,-10.17,-0.44,0.13,0.27,-0.53,33.25,4.24,-10.64,242268
-3.55,-9.04,-1.27,0.02,-0.59,-0.42,33.60,4.56,-11.91,242302
-0.29,-9.04,-1.11,0.01,-0.88,-0.77,34.41,4.91,-16.53,242336
1.67,-9.86,-0.49,-0.05,-0.21,-0.53,34.93,4.46,-17.95,242371
0.49,-9.41,-0.28,0.02,0.13,-0.10,35.36,3.39,-19.32,242405
-2.81,-9.65,0.27,0.24,-0.31,-0.34,35.57,2.92,-22.41,242439
-3.73,-8.91,-1.00,0.30,-0.51,-0.88,35.55,1.91,-24.66,242473
-6.42,-9.60,-4.86,0.32,-1.47,-0.68,35.19,1.14,-29.49,242507
-5.59,-8.14,-1.28,0.64,-1.67,-0.62,33.92,-0.53,-33.46,242541
-6.79,-8.29,0.10,0.73,-2.75,-0.64,31.76,-3.19,-38.70,242576
-7.77,-9.20,-4.34,0.84,-4.76,-0.59,27.24,-5.55,-44.43,242610
-5.28,-9.47,-4.89,0.50,-4.54,-0.47,22.29,-8.73,-48.92,242644
-7.62,-9.98,-3.66,0.53,-4.51,-0.16,15.74,-12.64,-52.37,242678
-6.64,-10.54,-7.08,0.32,-5.43,0.14,9.51,-16.22,-54.28,242712
-0.34,-10.88,-5.99,0.15,-4.59,0.61,4.21,-20.11,-53.16,242747
2.01,-9.28,-5.34,0.02,-2.70,1.07,-1.21,-24.39,-52.66,242781
7.85,-10.82,-2.25,-0.35,0.60,1.50,-2.19,-27.23,-50.54,242815
3.65,-9.37,1.00,-0.69,1.89,1.45,-1.74,-29.68,-49.14,242849
4.71,-10.14,0.78,-0.78,1.84,0.76,-1.49,-32.14,-49.39,242883
0.94,-10.12,0.18,-0.56,2.01,0.77,-1.01,-34.23,-48.61,242917
1.51,-9.01,0.83,-0.28,2.30,0.86,-0.35,-36.79,-48.47,242952
1.37,-11.00,1.30,-0.27,2.91,1.25,-0.37,-39.08,-47.49,242986
2.83,-10.27,1.73,-0.29,5.33,1.21,1.15,-41.13,-47.02,243020
-1.05,-11.56,2.27,-0.05,6.32,1.67,3.67,-42.90,-46.36,243054
-2.36,-12.42,1.12,0.47,5.77,1.64,5.52,-44.67,-45.25,243088
-4.03,-13.01,3.37,0.68,4.98,1.18,6.56,-46.76,-43.38,243123
-3.35,-11.97,1.14,1.16,2.46,0.76,6.09,-48.66,-42.88,243157
-1.26,-9.63,-3.64,1.34,0.77,0.19,4.14,-49.36,-41.61,243191
0.80,-9.36,-5.74,1.13,0.53,-0.14,1.39,-49.81,-41.87,243225
-1.19,-9.20,-2.27,0.92,-0.27,-0.46,-0.26,-50.61,-40.98,243259
-2.96,-9.22,-5.28,0.99,-1.98,-0.57,-3.55,-50.95,-40.13,243293
-2.37,-9.05,-5.14,0.83,-1.96,-0.74,-6.85,-51.39,-39.74,243328
-5.14,-8.93,-1.69,0.69,-2.18,-0.77,-10.19,-51.70,-39.39,243362
-8.10,-7.95,-5.48,0.46,-3.40,-1.15,-13.77,-52.46,-36.88,243396
-9.49,-7.19,-4.81,0.26,-5.19,-1.64,-17.14,-53.33,-33.86,243430
-6.02,-7.68,-6.39,0.12,-6.63,-1.04,-21.41,-54.41,-27.04,243464
-2.72,-9.70,-3.56,-0.25,-5.53,-0.74,-24.19,-54.91,-20.45,243499
-2.02,-9.64,-0.96,-0.55,-4.16,-0.28,-25.15,-55.09,-15.10,243533
-2.60,-10.09,-3.16,-0.66,-3.02,0.08,-26.03,-54.98,-8.58,243567
-2.57,-8.47,-2.67,-0.39,-1.96,0.23,-25.62,-54.74,-4.40,243601
-2.08,-9.68,-2.51,-0.24,-1.86,0.71,-26.37,-54.11,-1.18,243635
-0.72,-9.35,-2.07,-0.32,-1.26,0.90,-26.62,-52.76,2.66,243669
-0.08,-10.43,-0.55,-0.24,-0.72,1.14,-27.38,-51.51,5.77,243704
-0.37,-8.99,-1.08,-0.21,0.33,0.99,-28.34,-50.32,6.65,243738
2.29,-9.77,1.19,-0.46,1.92,0.89,-30.44,-48.99,5.54,243772
1.80,-10.48,0.16,-0.43,3.29,0.97,-33.44,-47.85,3.04,243806
1.43,-10.47,-0.30,-0.44,3.63,0.73,-37.47,-46.38,-1.20,243840
1.56,-11.09,0.88,-0.37,3.99,0.87,-40.18,-44.64,-6.17,243875
0.78,-11.37,2.45,-0.08,4.76,1.21,-43.28,-41.86,-12.51,243909
-2.47,-12.62,3.95,0.41,4.78,1.74,-45.70,-37.78,-17.47,243943
-3.82,-13.04,3.08,0.85,3.80,1.73,-47.22,-33.50,-21.47,243977
-1.00,-11.09,2.32,1.27,3.07,1.43,-48.13,-27.77,-23.88,244011
-1.50,-12.31,0.43,1.49,2.20,1.60,-48.19,-22.90,-25.71,244045
-3.99,-9.22,-0.67,1.71,1.50,0.95,-47.94,-19.15,-26.34,244080
-1.56,-8.77,-3.91,1.46,0.46,0.34,-47.44,-15.52,-26.56,244114
-2.64,-9.54,-5.08,1.30,-0.32,0.26,-47.92,-12.61,-26.12,244148
-1.32,-7.55,-5.99,1.02,-1.19,-0.39,-47.47,-11.17,-23.56,244182
-3.78,-9.17,-5.25,0.67,-2.54,-0.70,-47.71,-10.27,-20.59,244216
-3.12,-8.32,-6.70,0.47,-3.02,-0.91,-48.01,-10.61,-15.11,244250
-2.27,-9.13,-3.43,-0.04,-2.37,-1.02,-47.47,-10.76,-9.66,244285
-3.05,-8.95,-1.96,-0.04,-2.46,-0.82,-46.84,-10.93,-6.45,244319
-2.54,-9.00,-3.28,-0.13,-2.18,-0.82,-45.44,-11.02,-1.33,244353
-1.37,-9.13,-0.98,-0.22,-1.17,-0.62,-43.91,-10.86,0.16,244387
-3.12,-9.82,0.84,-0.41,-0.24,-0.45,-42.82,-10.58,1.43,244421
-4.29,-9.20,1.88,-0.43,-0.32,-0.78,-42.66,-11.43,2.85,244456
-6.16,-8.26,-1.82,-0.24,-2.18,-0.97,-41.11,-11.47,5.64,244490
-7.68,-8.48,-3.04,-0.10,-2.69,-0.76,-38.34,-11.96,11.36,244524
-6.25,-8.40,-0.81,-0.11,-2.55,-0.45,-34.22,-11.82,15.46,244558
-5.33,-7.84,-2.78,-0.07,-3.52,-0.18,-29.32,-11.56,20.45,244592
-5.96,-9.72,-4.13,0.02,-3.65,0.10,-21.00,-10.61,26.16,244626
-3.00,-11.20,-4.53,-0.38,-2.83,0.14,-13.43,-10.80,28.63,244661
-1.96,-9.93,-3.99,-0.16,-1.51,0.53,-7.95,-11.66,30.44,244695
-0.60,-11.12,-2.04,-0.50,-0.47,0.47,-2.63,-12.95,31.50,244729
-1.04,-10.45,-0.69,-0.51,-0.40,0.49,0.64,-13.99,31.67,244763
-0.98,-8.95,-2.99,-0.53,-0.84,0.28,4.37,-16.97,31.75,244797
1.16,-10.41,-2.82,-0.36,-0.08,0.60,7.61,-19.03,31.57,244832
3.71,-8.80,0.45,-0.49,2.15,0.85,6.85,-21.25,31.41,244866
1.64,-11.17,1.49,-0.53,3.26,1.19,2.51,-22.68,30.28,244900
0.16,-10.14,0.64,-0.31,3.53,0.92,-2.89,-23.55,30.30,244934
0.24,-11.80,-0.95,-0.20,3.74,0.97,-6.62,-23.68,28.54,244968
-1.33,-12.12,-0.84,-0.06,3.85,1.09,-13.45,-22.90,27.45,245002
-1.87,-10.46,0.55,0.28,3.83,1.09,-18.11,-21.37,25.50,245037
-2.87,-13.34,1.92,0.64,3.70,1.42,-23.63,-18.40,22.17,245071
-1.81,-12.32,1.83,0.87,3.21,1.19,-26.82,-15.46,18.56,245105
-1.18,-10.87,0.94,1.06,2.80,0.96,-29.22,-12.48,15.59,245139
-0.21,-10.52,1.38,1.17,2.52,0.83,-31.29,-9.18,11.75,245173
-1.17,-11.86,-1.52,1.28,1.02,0.64,-31.50,-6.11,9.82,245208
-1.08,-8.30,-5.79,1.37,-0.08,0.19,-31.18,-3.71,9.21,245242
1.39,-8.65,-7.16,1.21,-0.19,0.07,-29.73,-1.93,8.43,245276
-0.33,-9.48,-2.35,0.86,0.06,-0.24,-29.61,-0.77,7.83,245310
-3.96,-9.92,-1.74,0.95,-0.90,-0.40,-28.95,0.42,7.92,245344
-5.61,-8.21,-4.00,1.05,-1.48,-0.63,-27.93,0.92,8.67,245378
-6.92,-9.16,-4.51,0.81,-1.60,-0.87,-26.94,1.70,9.11,245413
-12.41,-8.15,-2.99,0.63,-4.16,-1.46,-24.60,0.67,11.77,245447
-12.37,-6.69,-7.76,0.48,-6.98,-1.93,-19.22,-0.28,15.26,245481
-9.25,-7.29,-7.29,0.17,-7.35,-1.78,-10.41,-1.71,19.73,245515
-6.63,-9.79,-6.38,0.14,-6.71,-0.89,-2.97,-2.51,20.80,245549
-2.11,-8.56,-3.58,0.07,-4.25,0.12,2.92,-3.36,21.21,245583
-2.50,-9.47,-2.68,-0.05,-2.54,0.81,7.09,-3.64,20.53,245618
-1.26,-11.05,-3.58,-0.09,-1.81,1.04,9.97,-4.56,20.53,245652
-2.40,-7.56,-4.43,0.04,-1.93,0.81,11.87,-5.48,20.67,245686
1.53,-10.76,-4.77,-0.27,-1.74,0.75,15.35,-6.55,19.38,245720
2.70,-10.37,-0.47,-0.45,-0.57,0.76,16.65,-7.75,19.22,245754
1.13,-10.88,-1.46,-0.47,0.29,0.95,17.11,-9.22,19.37,245789
2.18,-10.39,-1.23,-0.67,1.82,0.72,16.00,-10.80,19.32,245823
1.32,-10.56,0.12,-0.74,2.95,0.82,12.92,-11.24,19.75,245857
1.77,-10.47,-0.80,-0.64,2.93,0.67,9.02,-11.78,20.81,245891
2.55,-9.88,-0.20,-0.56,3.17,0.62,6.26,-12.17,20.90,245925
1.04,-11.05,0.67,-0.40,4.27,1.08,0.80,-12.34,20.46,245959
-1.62,-11.24,0.02,-0.05,4.79,1.26,-4.91,-11.56,19.00,245994
-2.85,-10.93,0.00,0.15,4.65,1.04,-9.18,-10.77,16.87,246028
-2.29,-12.47,0.37,0.43,3.97,0.95,-12.86,-8.71,14.73,246062
-3.06,-12.28,3.06,0.81,3.25,1.02,-15.29,-6.80,11.50,246096
-2.59,-11.12,0.38,1.07,1.69,0.80,-15.57,-5.35,10.26,246130
0.54,-8.90,-2.60,1.19,0.98,0.18,-15.57,-3.90,7.99,246165
-0.90,-9.26,-2.88,1.28,0.73,0.39,-14.91,-3.17,6.71,246199
-0.90,-8.43,-5.28,1.03,-0.21,-0.18,-12.29,-2.66,5.99,246233
-2.76,-9.21,-4.90,1.10,-0.75,-0.31,-10.36,-2.51,5.39,246267
-1.93,-8.54,-4.49,0.90,-1.24,-0.47,-8.51,-2.69,4.00,246301
-2.38,-8.63,-1.14,0.72,-1.64,-0.52,-6.45,-3.96,3.62,246335
-4.37,-9.32,-2.72,0.78,-1.75,-0.49,-4.34,-5.16,3.23,246370
-6.07,-8.06,-2.66,0.71,-1.80,-0.71,-2.22,-6.49,2.79,246404
-7.24,-7.78,-2.95,0.69,-3.61,-0.77,0.79,-7.86,1.18,246438
-9.88,-8.20,-4.35,0.35,-5.11,-0.91,3.70,-9.94,-1.51,246472
-11.11,-9.93,-5.63,0.23,-6.11,-1.03,7.89,-13.71,-2.65,246506
-6.81,-8.59,-6.53,0.13,-6.40,-0.68,10.38,-16.97,-4.82,246541
-4.00,-11.30,-6.30,-0.11,-5.01,-0.03,12.00,-20.27,-6.26,246575
-0.71,-10.20,-3.73,-0.30,-2.79,0.55,12.20,-25.24,-6.49,246609
-1.09,-10.05,-3.89,-0.34,-1.97,0.65,11.06,-27.73,-6.33,246643
0.19,-10.51,-3.98,-0.54,-1.88,0.51,10.42,-30.75,-5.14,246677
0.01,-8.92,-2.41,-0.29,-1.46,0.66,9.97,-32.86,-5.04,246711
1.98,-10.06,-1.31,-0.65,-0.23,0.78,8.46,-34.36,-4.08,246746
2.18,-9.98,-0.81,-0.58,0.92,1.01,5.76,-35.97,-2.44,246780
1.76,-8.34,0.02,-0.57,2.41,1.00,3.30,-37.68,-0.63,246814
1.17,-10.39,0.66,-0.36,3.02,1.15,-0.94,-38.44,0.82,246848
-1.20,-10.35,0.21,-0.24,2.98,0.99,-4.97,-38.83,1.21,246882
-0.71,-10.84,0.88,-0.29,2.93,0.87,-8.02,-38.04,1.23,246916
-1.14,-10.50,0.39,-0.27,2.92,0.81,-12.09,-37.40,1.40,246951
-1.33,-10.44,0.18,-0.05,2.98,0.90,-15.97,-36.14,0.76,246985
-0.63,-10.64,0.06,0.12,3.15,1.00,-19.76,-33.57,-0.13,247019
-2.46,-11.62,0.47,0.31,3.37,1.15,-22.81,-31.61,-1.56,247053
-2.31,-10.74,1.36,0.59,3.10,1.12,-25.64,-27.80,-1.70,247087
-1.51,-11.99,0.96,0.77,2.76,1.03,-27.57,-23.49,-4.31,247122
-1.26,-11.03,-0.68,1.00,2.31,1.00,-28.68,-19.26,-4.90,247156
-1.71,-11.36,-1.56,1.14,1.88,0.72,-28.05,-14.83,-5.28,247190
-2.55,-9.23,-2.72,1.19,1.14,0.50,-27.29,-11.44,-5.80,247224
-2.24,-9.57,-3.71,1.18,0.35,0.20,-25.87,-9.27,-6.30,247258
-1.46,-7.23,-4.24,1.13,-0.20,-0.19,-23.33,-7.98,-5.57,247292
-0.77,-8.40,-5.36,0.99,-0.60,-0.27,-20.93,-6.59,-5.90,247327
-0.50,-9.07,-3.89,0.76,-0.34,-0.50,-19.37,-6.49,-5.38,247361
-3.20,-9.33,-1.23,0.70,-0.75,-0.47,-16.82,-5.74,-6.17,247395
-4.63,-8.24,-0.38,0.83,-1.94,-0.51,-14.44,-5.63,-6.75,247429
-4.83,-7.94,-5.20,0.68,-3.01,-0.67,-11.58,-6.49,-6.09,247463
-5.65,-9.66,-3.06,0.44,-1.86,-0.66,-9.85,-7.42,-6.43,247498
-6.88,-8.31,-0.91,0.35,-2.49,-0.81,-8.21,-8.83,-6.11,247532
-6.42,-8.58,-3.59,0.26,-4.31,-1.00,-6.34,-10.58,-5.09,247566
-6.62,-8.64,-4.28,0.10,-4.47,-1.08,-4.93,-12.47,-4.74,247600
-6.08,-9.66,-3.73,-0.05,-4.61,-0.86,-2.79,-14.95,-4.33,247634
-5.84,-8.94,-3.59,-0.09,-4.34,-0.62,-1.14,-17.19,-3.58,247668
-5.69,-9.50,-3.63,-0.23,-4.06,-0.29,1.75,-19.25,-3.11,247703
-4.71,-10.16,-4.50,-0.23,-3.80,0.11,4.79,-21.85,-2.08,247737
-1.13,-9.30,-3.13,-0.17,-2.79,0.65,6.69,-24.09,-1.33,247771
0.95,-9.73,-3.51,-0.22,-1.94,1.04,8.01,-26.85,-1.49,247805
1.67,-10.61,-1.74,-0.35,-0.46,1.04,8.01,-29.74,-0.88,247839
-0.12,-9.61,-0.26,-0.55,-0.18,0.91,7.34,-31.76,0.09,247874
1.69,-9.23,-1.10,-0.27,0.49,0.92,6.47,-34.57,-0.06,247908
3.08,-10.04,-0.55,-0.53,1.92,0.92,4.65,-35.66,-0.01,247942
1.64,-9.11,0.95,-0.55,2.53,0.86,1.23,-38.25,0.53,247976
0.71,-10.04,0.30,-0.42,2.74,0.96,-1.43,-38.91,0.37,248010
0.41,-10.22,0.12,-0.44,3.61,1.04,-5.06,-39.93,0.35,248044
-1.02,-9.95,1.01,-0.42,3.96,1.04,-9.31,-39.89,-2.38,248079
-2.43,-10.98,0.31,-0.19,3.86,1.11,-12.83,-39.94,-3.49,248113
-4.53,-10.90,-0.37,0.07,3.72,1.04,-16.28,-39.52,-5.35,248147
-2.32,-11.14,-0.21,0.32,3.41,1.08,-19.67,-37.31,-7.19,248181
-3.22,-11.67,0.36,0.55,3.12,1.01,-22.65,-35.85,-9.47,248215
-0.45,-10.83,-0.96,0.69,2.58,0.91,-25.14,-33.85,-10.83,248250
-1.20,-11.12,-0.36,0.97,2.75,0.91,-26.50,-31.04,-12.79,248284
-0.86,-10.39,-0.71,1.11,2.32,0.88,-27.83,-28.85,-15.00,248318
-1.50,-10.56,-2.62,1.25,1.60,0.72,-28.31,-25.93,-16.94,248352
-0.55,-10.16,-2.61,1.27,1.25,0.48,-28.88,-24.19,-18.23,248386
-0.90,-9.24,-3.22,1.44,0.75,0.46,-29.06,-21.75,-18.09,248420
-2.40,-8.41,-5.11,1.33,0.04,0.21,-28.30,-20.13,-19.34,248455
-2.30,-7.13,-6.00,1.22,-1.04,-0.38,-28.34,-19.95,-19.10,248489
-5.02,-8.83,-3.49,0.97,-2.07,-0.76,-27.97,-19.48,-16.91,248523
-5.74,-7.51,-4.02,0.87,-3.35,-0.97,-27.54,-19.39,-14.50,248557
-7.10,-7.59,-5.19,0.69,-3.97,-1.07,-25.56,-19.91,-10.74,248591
-6.23,-7.33,-5.11,0.47,-4.18,-1.19,-24.96,-20.29,-7.66,248625
-5.57,-8.42,-2.74,0.18,-4.34,-1.24,-22.77,-20.97,-5.00,248660
-5.40,-7.20,-3.03,0.18,-4.91,-1.07,-20.13,-22.24,0.18,248694
-4.48,-10.29,-4.21,0.03,-4.69,-0.81,-16.18,-22.20,2.81,248728
-2.29,-9.54,-2.20,-0.18,-3.12,-0.43,-13.27,-22.86,4.82,248762
-2.52,-9.01,-4.48,-0.11,-2.96,-0.12,-10.79,-23.25,5.48,248796
-1.14,-10.44,-3.42,-0.29,-2.48,-0.07,-8.37,-23.28,5.69,248831
0.24,-8.96,-1.51,-0.43,-1.85,0.22,-5.96,-24.25,6.17,248865
-0.35,-9.18,-2.54,-0.44,-1.78,0.40,-4.27,-24.74,6.47,248899
0.77,-9.44,-1.77,-0.38,-1.02,0.51,-2.88,-24.63,6.02,248933
-1.14,-9.95,-0.33,-0.41,-0.06,0.79,-3.01,-25.65,4.66,248967
-0.61,-11.14,1.36,-0.64,0.40,0.65,-3.33,-26.31,4.19,249001
3.23,-10.06,1.09,-0.52,1.00,0.85,-3.81,-26.94,2.18,249036
3.93,-10.01,-1.03,-0.32,2.54,1.18,-5.26,-26.94,0.83,249070
5.99,-10.86,-0.25,-0.48,4.33,1.21,-7.45,-27.05,-0.66,249104
1.29,-11.32,1.13,-0.37,5.72,1.56,-10.19,-26.91,-4.31,249138
0.89,-10.35,1.51,-0.12,5.97,1.43,-13.07,-26.09,-7.42,249172
-3.77,-12.23,-1.00,0.24,5.00,1.37,-14.45,-24.77,-9.78,249207
-2.52,-11.72,-1.57,0.59,4.38,1.08,-15.24,-24.07,-11.41,249241
-2.99,-12.19,0.41,0.62,3.68,0.88,-16.27,-23.25,-13.33,249275
-2.50,-11.21,-1.67,0.83,2.44,0.43,-16.19,-22.26,-14.12,249309
-3.43,-10.44,-1.96,1.08,1.89,0.42,-15.70,-22.19,-14.78,249343
-5.56,-11.27,-0.75,1.14,0.84,0.30,-16.22,-21.56,-14.24,249377
-3.73,-9.48,-3.52,1.27,-0.48,-0.06,-15.51,-21.15,-13.31,249412
-4.58,-8.42,-4.69,1.24,-1.16,-0.29,-14.83,-20.89,-12.72,249446
-5.09,-7.70,-5.68,1.13,-1.94,-0.59,-13.72,-21.06,-10.13,249480
-2.67,-7.65,-3.29,0.85,-2.97,-0.95,-11.78,-21.40,-8.49,249514
-3.45,-8.08,-3.62,0.64,-3.45,-0.99,-9.87,-21.72,-7.32,249548
-5.09,-7.90,-4.43,0.51,-3.60,-1.08,-6.05,-22.49,-4.72,249583
-4.46,-8.24,-2.16,0.44,-3.60,-1.03,-3.03,-23.60,-3.98,249617
-4.94,-9.21,-3.51,0.33,-3.28,-0.80,0.89,-24.45,-3.01,249651
-7.42,-9.68,-2.85,0.17,-3.14,-0.82,4.43,-25.65,-3.36,249685
-7.07,-9.42,-3.03,0.29,-4.22,-0.73,7.73,-28.12,-4.00,249719
-6.44,-10.03,-5.13,0.13,-5.03,-0.63,12.72,-29.89,-5.20,249753
-3.07,-11.32,-5.41,0.16,-4.61,0.04,15.78,-32.93,-7.91,249788
-1.00,-9.15,-4.09,-0.05,-3.27,0.35,18.30,-36.70,-9.53,249822
-1.04,-9.76,-3.98,-0.16,-2.69,0.56,19.22,-40.53,-12.23,249856
-1.17,-9.55,-2.75,-0.08,-2.08,0.91,19.61,-44.11,-13.52,249890
-1.81,-9.72,-4.13,-0.12,-1.65,0.94,18.28,-48.73,-15.80,249924
1.01,-10.69,-2.57,-0.41,-0.94,0.81,17.70,-52.48,-16.68,249958
0.69,-9.41,-1.29,-0.39,-0.16,0.85,15.86,-57.02,-18.02,249993
3.46,-9.47,-0.55,-0.42,0.74,1.02,14.10,-60.22,-18.77,250027
2.97,-9.63,0.10,-0.52,1.97,0.99,11.33,-63.48,-19.22,250061
2.68,-10.00,-0.69,-0.52,2.70,0.94,8.68,-66.35,-19.83,250095
0.96,-9.83,-0.29,-0.54,3.38,0.92,6.59,-68.93,-19.48,250129
1.53,-9.19,1.61,-0.58,4.37,1.17,3.86,-71.53,-20.62,250164
-0.83,-11.56,1.12,-0.19,4.90,1.56,0.85,-72.60,-21.19,250198
-1.15,-11.96,-0.36,-0.01,5.01,1.46,-2.67,-74.44,-21.57,250232
-2.86,-13.13,0.63,0.33,5.34,1.53,-6.55,-75.42,-22.70,250266
3.29,-13.67,2.14,0.50,5.28,1.50,-10.58,-75.48,-23.41,250300
-0.27,-13.00,4.22,0.86,5.33,1.54,-13.75,-75.69,-23.63,250334
0.62,-14.02,0.64,1.25,3.10,1.23,-17.90,-74.07,-24.12,250369
-1.47,-10.77,-1.89,1.51,1.26,0.64,-19.82,-72.86,-22.27,250403
0.55,-8.15,-7.91,1.67,-0.47,0.38,-21.63,-71.29,-18.71,250437
-1.87,-7.10,-7.68,1.38,-0.95,0.10,-22.99,-70.20,-15.36,250471
-1.48,-8.66,-5.60,1.00,-0.99,-0.29,-23.69,-69.35,-13.67,250505
-2.97,-8.55,-2.09,0.84,-0.78,-0.57,-23.74,-69.19,-11.78,250540
-5.20,-8.44,-1.70,0.81,-1.10,-0.70,-23.44,-69.66,-10.52,250574
-5.08,-8.84,-2.65,0.86,-2.32,-0.80,-23.12,-70.01,-8.32,250608
-5.02,-7.07,-6.07,0.73,-3.28,-1.01,-22.05,-70.72,-5.20,250642
-3.60,-7.18,-4.32,0.55,-3.17,-0.92,-22.01,-72.13,-1.91,250676
-5.42,-9.16,-2.24,0.24,-3.91,-0.86,-20.84,-73.74,2.32,250710
-5.17,-8.71,-3.17,0.12,-5.20,-1.11,-18.61,-75.28,6.02,250745
-2.53,-9.00,-4.38,-0.03,-4.79,-0.89,-15.30,-77.55,11.03,250779
-2.02,-9.18,-3.18,0.02,-2.65,-0.19,-15.04,-78.71,14.79,250813
-2.52,-10.00,-1.34,-0.11,-1.71,0.10,-16.14,-79.92,18.77,250847
-1.47,-9.31,-1.46,-0.14,-1.70,-0.02,-17.07,-81.18,22.76,250881
-2.13,-9.50,-1.37,-0.17,-1.78,0.04,-18.37,-80.81,27.33,250916
-3.88,-9.09,-3.73,-0.11,-2.56,0.01,-17.89,-79.74,33.65,250950
-3.03,-9.62,-4.40,-0.13,-2.63,-0.03,-15.65,-79.10,39.42,250984
-0.59,-9.55,-2.30,-0.25,-2.02,0.18,-13.64,-78.31,43.47,251018
-0.66,-9.07,-3.34,-0.28,-1.78,0.36,-12.20,-75.55,48.39,251052
-0.96,-9.75,-2.47,-0.26,-0.94,0.44,-11.34,-73.97,52.51,251086
0.82,-9.60,-0.95,-0.35,-0.52,0.46,-11.85,-72.27,55.52,251121
0.38,-9.32,-1.42,-0.20,-0.33,0.63,-12.39,-69.94,56.93,251155
1.64,-9.45,-0.58,-0.30,0.72,0.74,-15.39,-68.33,57.44,251189
0.85,-9.39,-0.22,-0.40,1.50,0.76,-20.74,-64.91,57.41,251223
1.84,-9.24,-0.38,-0.33,2.15,0.75,-27.08,-62.45,56.42,251257
1.43,-9.96,0.13,-0.33,3.23,1.07,-35.59,-59.56,52.81,251291
1.28,-9.77,1.78,-0.23,4.09,1.32,-47.76,-54.40,47.41,251326
0.55,-8.55,2.51,0.14,4.19,1.55,-58.52,-48.58,40.59,251360
-0.22,-11.81,1.20,0.34,4.00,1.58,-69.23,-39.61,30.40,251394
-1.36,-11.89,0.19,0.57,4.11,1.57,-76.64,-32.05,21.32,251428
-2.52,-11.35,-0.68,0.72,3.73,1.29,-81.34,-25.04,12.12,251462
-1.20,-11.19,-1.02,0.85,2.99,0.93,-84.46,-17.95,1.43,251497
-0.03,-11.37,-2.31,0.87,2.77,0.75,-85.15,-12.23,-6.65,251531
0.65,-11.11,-3.68,0.85,2.84,0.51,-85.05,-7.22,-17.61,251565
0.22,-10.61,-0.93,0.89,3.03,0.40,-84.04,-3.74,-27.27,251599
0.08,-11.09,-0.61,0.94,2.21,0.27,-82.43,-0.80,-34.77,251633
-4.12,-9.96,-0.99,1.21,0.66,0.16,-80.30,0.94,-39.07,251667
-5.14,-8.16,-3.82,1.33,-1.04,-0.10,-79.47,1.59,-38.97,251702
-5.22,-7.94,-4.04,1.31,-1.69,-0.33,-79.80,2.05,-36.01,251736
-3.44,-8.37,-4.58,1.08,-2.47,-0.57,-80.31,1.67,-31.79,251770
-3.77,-8.26,-2.97,0.85,-2.45,-0.76,-80.33,0.58,-26.16,251804
-4.74,-9.18,-1.95,0.67,-2.87,-0.78,-81.12,0.45,-18.80,251838
-5.77,-8.73,-3.15,0.57,-3.14,-0.87,-81.09,0.61,-11.30,251873
-4.77,-9.10,-3.28,0.38,-3.03,-0.94,-80.18,0.54,-2.59,251907
-5.57,-8.85,-2.61,0.28,-3.43,-0.98,-78.34,1.04,5.03,251941
-3.62,-9.51,-3.37,0.24,-3.61,-0.76,-75.40,2.21,12.89,251975
-3.63,-10.03,-2.28,0.19,-3.08,-0.51,-70.75,4.68,20.81,252009
-2.80,-9.67,-1.10,0.21,-2.71,-0.32,-66.19,7.37,26.32,252043
-1.47,-8.48,-1.53,0.20,-2.39,-0.16,-61.17,9.87,30.43,252078
-5.20,-10.40,-1.92,0.27,-2.11,0.01,-55.55,13.64,33.47,252112
-3.51,-9.55,-1.53,0.27,-2.28,-0.16,-50.15,16.43,35.60,252146
-2.82,-10.18,-2.26,0.17,-2.35,0.03,-43.28,18.96,38.03,252180
-1.89,-9.56,-1.81,0.18,-1.95,0.15,-36.01,20.78,38.29,252214
-1.55,-10.46,-2.44,0.15,-1.99,0.05,-29.82,21.79,38.38,252249
-0.68,-8.03,-1.44,0.09,-1.87,-0.12,-22.54,21.57,37.83,252283
-1.87,-10.96,-2.74,-0.02,-2.24,-0.06,-16.14,22.07,37.20,252317
-1.42,-9.83,-3.04,-0.08,-2.16,-0.17,-9.60,20.91,36.20,252351
-0.58,-11.06,-2.34,0.00,-2.03,0.01,-2.76,19.63,35.02,252385
-0.43,-9.54,-2.18,0.02,-1.94,0.05,2.85,18.20,32.72,252419
-0.13,-10.38,-2.87,-0.09,-1.83,0.01,8.36,15.92,31.57,252454
-1.03,-10.63,-2.06,-0.19,-1.42,0.05,12.57,13.87,29.25,252488
0.55,-9.02,-1.26,-0.16,-1.05,0.06,15.73,11.52,27.68,252522
-1.02,-10.11,-0.74,-0.08,-1.06,0.07,18.69,8.49,25.07,252556
-1.26,-9.55,-0.54,-0.05,-1.33,-0.05,20.78,6.31,22.77,252590
-1.62,-9.97,-0.84,-0.04,-1.20,0.09,23.65,3.51,20.21,252625
-2.03,-10.55,-0.34,-0.06,-0.94,0.12,24.98,0.53,18.25,252659
-1.63,-9.67,-0.79,-0.13,-1.01,-0.10,27.11,-2.57,15.99,252693
-0.52,-10.19,-0.81,-0.02,-0.93,0.11,28.79,-5.98,14.78,252727
-1.24,-9.70,-0.30,0.05,-0.76,0.15,29.82,-9.53,13.49,252761
-1.57,-11.28,-0.79,-0.02,-1.19,0.05,30.49,-13.07,11.06,252795
-0.37,-8.99,-1.46,-0.05,-1.48,-0.28,31.83,-16.11,9.73,252830
-2.41,-9.71,-1.97,0.12,-1.69,-0.00,32.34,-18.93,8.84,252864
-2.48,-9.48,-2.35,-0.00,-1.98,-0.32,33.66,-22.23,6.50,252898
-1.03,-10.21,-1.97,-0.15,-2.01,-0.35,33.97,-24.67,4.95,252932
-0.76,-10.21,-1.64,-0.15,-1.66,-0.24,34.48,-26.94,0.01,252966
-1.90,-10.48,-0.66,-0.15,-1.44,-0.20,34.83,-29.54,2.81,253000
-0.75,-10.04,-0.78,0.01,-1.35,0.10,34.16,-31.50,2.84,253035
-3.36,-8.60,-0.16,0.25,-1.15,0.33,33.15,-33.34,3.90,253069
-3.07,-10.68,-1.90,0.32,-1.78,0.33,33.16,-34.26,3.11,253103
-4.45,-10.35,-2.00,0.30,-2.38,0.07,33.47,-35.40,3.52,253137
-1.66,-9.54,-3.06,0.28,-2.49,0.09,34.68,-36.41,1.58,253171
1.50,-10.23,-3.12,0.13,-1.97,0.21,35.14,-36.92,0.86,253206
1.00,-9.88,-1.31,0.00,-1.08,0.16,36.09,-37.65,0.83,253240
0.56,-10.25,-1.89,-0.21,-0.74,-0.11,35.68,-38.12,-0.06,253274
0.60,-8.72,-2.16,-0.23,-0.47,-0.18,35.91,-38.51,0.58,253308
-0.34,-9.82,-1.06,-0.16,-0.15,-0.03,35.94,-38.86,1.37,253342
-1.35,-9.22,-0.26,-0.06,-0.44,-0.15,35.69,-39.43,2.02,253376
-2.39,-10.00,-0.08,0.03,-0.72,-0.11,36.36,-40.35,2.06,253411
-3.45,-9.69,0.08,0.08,-1.10,-0.18,36.85,-40.32,2.12,253445
-3.66,-9.89,-0.56,0.15,-1.66,-0.17,38.06,-40.54,1.89,253479
-3.17,-9.10,-1.63,0.21,-2.39,-0.30,40.19,-39.71,-0.20,253513
-3.55,-9.08,-2.07,0.32,-2.90,-0.14,42.28,-39.13,-2.16,253547
-4.78,-10.62,-3.13,0.29,-3.31,-0.08,45.21,-38.89,-4.68,253582
-3.30,-10.33,-3.56,0.14,-3.61,-0.19,49.15,-38.69,-9.84,253616
-0.72,-8.98,-4.52,0.16,-3.63,-0.13,51.77,-38.75,-14.29,253650
-1.79,-10.22,-4.27,0.20,-3.30,0.04,53.70,-39.23,-21.65,253684
-1.19,-10.86,-3.76,0.15,-2.88,0.27,55.09,-40.09,-27.17,253718
0.40,-9.75,-2.75,0.02,-2.21,0.21,55.01,-40.84,-32.94,253752
1.07,-9.25,-2.23,-0.06,-1.82,0.32,54.81,-43.29,-37.04,253787
0.09,-9.96,-1.80,-0.06,-1.24,0.41,54.43,-44.04,-39.94,253821
-0.64,-9.60,-1.39,-0.09,-0.88,0.33,53.68,-46.19,-43.26,253855
0.69,-10.19,-0.97,-0.15,-0.44,0.45,53.23,-47.65,-43.77,253889
0.57,-9.75,-0.23,-0.16,0.03,0.45,53.22,-48.74,-44.04,253923
1.53,-9.94,-0.45,-0.13,0.41,0.50,53.24,-50.48,-44.26,253958
0.28,-9.76,0.05,-0.11,0.91,0.48,53.17,-51.78,-43.34,253992
-1.31,-9.98,-0.86,-0.19,0.61,0.25,53.60,-53.14,-41.70,254026
-2.04,-9.69,-1.32,-0.18,0.35,0.10,54.12,-54.17,-41.84,254060
-1.57,-9.45,-1.98,-0.28,-0.20,-0.16,54.47,-54.62,-42.01,254094
0.54,-9.85,-2.51,-0.30,-0.34,-0.41,54.94,-54.28,-43.00,254128
0.16,-9.96,-1.97,-0.50,0.05,-0.54,56.04,-53.60,-43.26,254163
1.04,-9.07,-3.58,-0.83,0.00,-1.06,57.83,-51.07,-44.58,254197
2.29,-8.34,-3.87,-1.00,0.12,-1.38,59.75,-48.11,-45.00,254231
3.21,-7.07,-3.19,-1.38,0.32,-1.87,62.31,-43.10,-47.06,254265
4.93,-3.20,-0.91,-1.10,0.83,-1.55,65.02,-38.13,-46.38,254299
9.06,-17.22,-14.97,-2.78,0.06,-2.18,67.77,-32.84,-46.02,254333
-1.26,-11.47,1.01,-1.95,1.30,-2.26,70.52,-28.85,-40.75,254368
0.99,-12.22,-1.17,-0.15,0.70,-0.24,71.65,-27.61,-39.29,254402
1.92,-10.77,-2.09,-0.01,-0.20,-0.19,72.17,-27.36,-39.24,254436
0.51,-10.76,-5.16,-0.37,0.52,0.08,72.60,-27.45,-38.34,254470
1.81,-7.77,-0.47,-0.22,0.86,-0.59,73.59,-27.00,-36.36,254504
-0.79,-9.92,-0.78,0.25,0.45,0.40,74.17,-28.22,-34.89,254539
0.53,-9.77,-1.87,0.39,-0.16,0.47,74.92,-29.66,-34.71,254573
3.32,-9.03,-2.93,0.14,-0.04,0.02,75.05,-30.49,-34.20,254607
2.66,-8.54,-3.00,0.20,0.28,0.01,75.78,-31.22,-33.46,254641
1.41,-8.97,-3.59,0.27,0.02,-0.11,76.54,-32.07,-33.03,254675
2.71,-9.38,-2.67,0.21,-0.08,-0.36,77.58,-31.89,-33.15,254709
3.87,-9.05,-2.85,0.35,-0.29,-0.47,78.02,-31.60,-33.76,254744
3.18,-8.29,-4.60,0.32,-0.29,-0.70,79.38,-30.39,-33.31,254778
4.84,-8.22,-4.58,0.29,-0.22,-0.63,79.96,-29.41,-34.00,254812
4.67,-8.33,-2.74,0.41,0.12,-0.20,80.68,-29.10,-33.60,254846
4.94,-8.56,-4.01,0.38,0.12,-0.17,81.58,-29.16,-32.51,254880
2.59,-9.61,-4.68,0.39,0.07,-0.74,81.92,-27.95,-31.07,254915
0.45,-13.70,-1.41,0.31,0.15,-0.72,83.02,-26.19,-31.76,254949
4.14,-11.23,-5.04,-0.16,0.39,-1.22,84.05,-22.74,-29.79,254983
2.37,-11.53,-4.13,-0.35,0.41,-1.49,84.76,-19.64,-27.46,255017
-1.45,-10.42,-2.60,-0.36,1.51,-2.51,85.78,-13.64,-23.02,255051
1.05,-7.54,-7.04,-0.81,0.76,-3.13,86.28,-4.24,-21.22,255085
-2.61,-11.26,0.69,-0.44,-1.26,-2.70,85.93,4.46,-23.22,255120
-0.53,-5.47,-1.59,-0.87,-3.22,-1.97,84.48,12.26,-32.08,255154
3.68,-7.19,-1.61,-0.64,-3.39,-1.03,82.68,15.97,-41.04,255188
3.97,-6.91,-2.69,-0.09,-2.66,0.15,81.07,16.62,-51.07,255222
6.46,-7.39,-3.68,0.18,-2.21,0.61,80.78,14.62,-57.31,255256
8.99,-7.32,-1.48,0.37,-0.40,1.16,81.91,11.82,-59.94,255291
1.76,-7.29,-1.62,0.99,1.66,2.63,88.23,2.43,-57.40,255325
2.53,-9.03,-0.46,1.26,1.30,3.20,93.35,-9.84,-55.16,255359
2.91,-9.96,-0.61,1.31,0.62,3.41,96.46,-23.06,-54.08,255393
2.88,-10.66,-1.07,1.16,-0.39,3.23,98.01,-40.59,-55.38,255427
3.05,-11.26,-3.10,1.48,-1.20,2.86,96.27,-55.29,-58.84,255461
7.47,-7.95,-4.21,1.03,-0.36,-0.42,93.63,-67.63,-61.33,255496
6.15,-6.31,-3.96,-0.28,-0.19,-0.41,94.58,-73.68,-62.34,255530
1.86,-10.21,-7.24,0.02,0.25,0.29,95.05,-79.86,-61.20,255564
1.41,-6.19,-6.78,0.67,0.26,-0.07,96.68,-84.00,-60.00,255598
3.81,-8.43,-1.84,0.23,0.56,0.25,95.44,-89.39,-59.54,255632
4.06,-9.24,-1.04,0.18,-0.14,-0.10,94.48,-95.18,-58.61,255666
2.27,-9.47,-4.34,0.17,-0.53,-0.51,93.41,-98.73,-58.29,255701
1.31,-8.12,-5.04,0.18,-0.74,-0.60,92.34,-101.05,-59.81,255735
2.35,-8.77,-3.69,0.19,-0.28,-0.31,90.53,-105.16,-59.38,255769
1.84,-9.17,-2.35,0.18,-0.10,-0.30,88.73,-107.88,-58.54,255803
1.16,-9.69,-1.69,0.06,-0.33,-0.56,87.78,-109.87,-57.86,255837
0.72,-9.73,-3.18,0.05,-0.35,-0.70,86.96,-110.57,-57.35,255872
-0.38,-9.67,-2.22,0.07,-0.14,-0.50,85.08,-111.40,-56.23,255906
0.16,-9.67,-1.42,0.04,0.27,-0.19,82.89,-113.97,-52.75,255940
0.53,-10.25,-0.71,0.07,0.12,-0.07,80.08,-115.38,-49.78,255974
0.07,-10.75,-0.66,0.11,-0.03,-0.20,77.08,-116.53,-46.62,256008
0.36,-9.83,-1.79,0.30,-0.24,-0.12,73.19,-117.51,-44.08,256042
1.10,-9.00,-2.38,0.60,-0.44,0.29,68.08,-118.44,-40.78,256077
1.52,-9.56,-2.06,0.61,-0.33,0.45,62.00,-119.54,-36.58,256111
2.09,-9.61,-2.52,0.46,-0.33,0.17,58.11,-119.20,-32.96,256145
1.06,-10.11,-2.46,0.31,-0.71,-0.16,55.88,-117.54,-29.90,256179
5.38,-6.25,-5.27,0.07,-0.61,-0.47,53.98,-115.87,-28.95,256213
1.90,-10.05,-1.98,0.00,-0.15,-0.01,52.32,-115.21,-26.26,256248
2.95,-9.25,-2.30,0.36,0.03,0.02,50.04,-113.64,-22.89,256282
2.13,-7.66,-3.06,0.25,-0.29,-0.08,49.01,-112.61,-21.76,256316
3.42,-8.91,-2.87,0.12,-0.05,-0.13,47.35,-111.43,-19.37,256350
2.13,-8.89,-2.60,0.18,-0.18,-0.28,47.22,-109.40,-18.81,256384
1.94,-8.91,-3.98,-0.06,-0.11,-0.41,46.73,-107.89,-17.22,256418
2.42,-9.21,-2.28,0.07,0.09,-0.27,46.80,-106.36,-15.55,256453
1.22,-9.72,-2.02,0.21,0.03,-0.16,45.91,-105.13,-13.23,256487
1.19,-9.95,-1.44,0.27,0.11,-0.05,44.90,-103.74,-11.94,256521
1.06,-10.40,0.15,0.26,-0.01,0.04,43.63,-102.31,-9.92,256555
1.41,-10.18,-0.18,0.17,-0.03,-0.00,42.03,-100.51,-8.27,256589
-0.84,-10.36,-0.99,0.36,-0.31,-0.04,40.76,-98.54,-6.02,256624
0.61,-10.94,-2.75,0.37,-0.52,-0.30,40.37,-96.02,-4.36,256658
0.83,-6.95,-2.75,0.17,-0.03,-0.40,40.18,-93.58,-3.55,256692
4.05,-4.05,-3.11,0.39,-0.40,-0.01,40.03,-91.10,-2.85,256726
-7.60,-18.04,1.31,1.11,0.28,0.80,37.33,-90.91,-0.15,256760
4.06,-10.67,-1.73,0.22,-0.25,-1.26,36.96,-89.14,-1.55,256794
0.34,-8.57,-1.62,0.72,-0.33,-1.09,40.97,-85.57,-1.30,256829
2.92,-10.24,1.55,0.29,-0.25,-0.46,41.92,-83.09,0.25,256863
3.25,-11.11,0.43,-0.22,0.15,0.48,40.76,-81.44,0.13,256897
0.51,-9.45,-1.04,0.16,0.38,0.93,38.88,-81.31,1.26,256931
2.95,-9.48,-2.41,0.12,-0.05,0.43,37.75,-80.56,0.76,256965
4.01,-7.81,-4.70,0.52,0.19,-0.12,36.69,-78.85,1.33,257000
3.35,-11.10,-1.99,0.00,0.11,-0.67,37.72,-77.68,1.93,257034
1.82,-7.49,-0.06,-0.01,-0.13,-0.15,38.12,-76.35,1.58,257068
1.69,-11.42,0.09,0.03,0.24,0.69,37.12,-75.53,0.39,257102
1.58,-9.58,-0.59,-0.07,0.05,0.34,36.23,-75.86,0.18,257136
3.62,-8.62,-1.52,-0.68,-0.19,-0.29,36.42,-75.69,-1.49,257170
0.18,-11.16,-1.80,-0.24,0.03,0.03,36.29,-75.96,-3.29,257205
2.35,-7.99,-1.80,0.10,-0.18,-0.13,36.83,-75.08,-3.61,257239
-3.08,-13.28,2.19,0.13,-0.16,0.42,36.03,-75.94,-4.55,257273
1.87,-8.09,-1.93,-0.97,-0.79,-0.39,36.66,-75.52,-6.36,257307
1.64,-8.95,-2.22,-0.71,-0.44,-0.15,36.89,-75.87,-7.92,257341
2.25,-9.53,-2.32,-0.34,-0.07,-0.19,37.18,-75.75,-9.25,257375
1.88,-8.87,-1.91,-0.06,0.15,0.09,36.39,-75.90,-9.78,257410
2.94,-9.86,-3.37,-1.09,0.34,0.39,34.90,-76.70,-11.74,257444
3.21,-9.21,-1.82,0.49,0.62,0.17,34.23,-76.97,-10.73,257478
1.29,-9.92,-1.93,0.52,0.59,0.17,32.97,-77.26,-8.93,257512
3.27,-8.35,-3.74,-0.33,0.23,0.04,32.46,-77.16,-9.28,257546
0.37,-8.74,-3.01,-1.09,0.24,0.13,30.94,-78.02,-11.96,257581
1.65,-8.48,-3.94,-1.79,-0.25,0.38,28.78,-79.00,-15.71,257615
2.94,-8.06,-4.89,-2.07,-0.43,0.15,27.89,-78.78,-20.83,257649
4.44,-10.72,-5.83,-1.90,-0.86,0.09,26.44,-79.58,-26.41,257683
1.72,-9.13,-5.06,-0.97,-1.10,0.25,24.51,-79.19,-28.85,257717
1.34,-8.22,-4.18,-0.51,-0.56,0.76,22.05,-79.11,-30.52,257751
1.29,-7.72,-3.76,-0.27,0.03,0.18,19.92,-78.73,-31.15,257786
0.44,-7.97,-3.90,0.49,1.30,-0.68,19.76,-78.40,-28.85,257820
0.11,-9.31,-6.78,1.33,2.72,-0.96,22.29,-76.83,-22.84,257854
1.75,-8.50,-4.82,0.46,0.53,-0.12,20.99,-76.16,-21.09,257888
2.07,-7.87,-4.59,-0.14,-0.08,-0.07,20.64,-75.18,-19.18,257922
1.71,-9.12,-6.21,0.79,-0.60,1.12,17.96,-74.16,-18.42,257957
1.60,-8.06,-3.83,-0.71,-1.69,0.96,14.16,-73.59,-17.66,257991
1.83,-9.33,-4.27,-1.14,-0.39,0.16,12.83,-72.33,-19.58,258025
1.47,-8.76,-4.93,-1.19,-0.15,0.27,11.21,-71.31,-21.47,258059
-0.49,-10.01,-6.07,-5.21,0.23,0.48,10.20,-69.06,-28.22,258093
-0.37,-2.57,-6.84,-17.25,3.64,-1.12,12.88,-55.06,-56.97,258127
3.65,0.53,-5.79,-7.49,2.66,-0.76,17.58,-41.20,-65.32,258162
2.22,1.54,-11.49,-0.62,-1.62,-0.38,17.29,-39.02,-64.94,258196
2.11,2.60,-9.77,-3.08,-0.66,0.11,15.21,-33.91,-66.59,258230
2.15,-0.22,-10.88,-2.46,-0.63,-0.14,14.24,-29.95,-67.54,258264
2.92,4.42,-7.96,-3.11,-0.26,0.64,13.17,-25.67,-68.37,258298
3.14,1.90,-10.50,-3.13,0.29,0.10,13.30,-19.88,-68.49,258333
3.84,1.29,-6.96,-3.69,5.36,-1.05,19.67,-15.77,-64.83,258367
2.16,7.60,-6.76,-4.64,5.18,-5.57,30.58,-5.61,-57.57,258401
3.70,8.01,-1.44,-11.83,-0.92,2.71,32.58,7.61,-51.59,258435
14.16,8.98,3.89,-16.19,0.40,1.15,35.02,18.71,-37.91,258469
1.97,9.20,5.74,0.86,-0.06,3.49,36.93,17.00,-35.37,258503
3.69,5.76,0.15,1.13,0.20,2.56,39.02,11.65,-36.28,258538
4.30,8.96,4.25,0.82,-1.06,1.57,40.44,7.73,-36.07,258572
5.85,2.52,-5.68,-0.87,-0.37,1.31,39.21,3.67,-38.28,258606
6.60,7.23,0.22,0.65,-0.12,0.68,39.52,2.91,-37.80,258640
4.44,6.86,5.78,5.88,-2.43,-2.41,37.66,1.18,-41.39,258674
6.35,6.69,-2.12,-2.35,-3.32,0.62,33.82,0.41,-45.28,258708
6.23,8.27,-1.83,-1.48,-1.39,0.06,32.45,1.01,-45.51,258743
5.79,6.82,1.05,-0.19,0.53,-0.15,32.26,0.89,-44.39,258777
5.75,7.39,-2.41,0.09,0.66,-0.24,33.02,0.07,-43.25,258811
6.48,8.16,-2.70,0.24,0.86,0.17,34.14,-1.23,-41.20,258845
5.99,6.28,0.58,-0.74,1.45,1.02,35.27,-3.01,-39.16,258879
4.46,13.30,-0.00,4.01,1.60,-3.95,36.47,-2.59,-37.20,258914
7.05,9.15,-3.98,-0.02,0.98,-1.61,36.82,-1.59,-34.90,258948
6.13,10.26,-0.55,2.38,1.12,-1.80,37.18,-1.59,-34.14,258982
0.06,8.71,-6.53,1.78,-1.10,-1.07,37.26,-1.51,-34.99,259016
5.25,8.48,-4.47,0.49,-0.57,0.29,37.09,-1.53,-35.88,259050
3.37,9.72,-4.62,-0.05,-2.74,-0.26,36.63,-2.51,-37.93,259084
3.50,8.78,-2.20,-1.35,-3.37,-0.56,34.11,-1.21,-41.65,259119
4.47,8.95,0.22,-3.78,-5.62,0.00,30.68,1.08,-45.63,259153
5.86,8.10,0.61,-4.32,-4.04,0.16,26.35,5.09,-47.49,259187
5.26,8.51,-0.08,-4.60,-3.18,0.39,23.98,9.11,-48.68,259221
2.74,10.47,0.12,-4.76,-3.87,1.29,21.05,12.34,-48.25,259255
4.01,8.74,1.55,-6.26,-4.49,1.67,18.02,17.58,-46.78,259290
4.98,7.31,5.04,-6.22,-4.73,1.35,15.45,22.42,-43.91,259324
5.63,7.87,6.37,-4.27,-4.89,0.21,13.27,26.51,-40.38,259358
4.96,5.65,5.30,-3.79,-3.25,-0.24,9.89,29.03,-37.93,259392
5.71,5.68,5.97,-2.02,-2.87,-0.65,7.99,30.96,-36.33,259426
6.54,5.66,6.58,-1.13,-0.74,-0.68,6.65,32.23,-35.03,259460
4.72,6.67,4.25,-1.35,0.81,-0.37,7.37,32.23,-33.10,259495
7.25,5.98,7.29,-1.75,-0.05,-0.17,6.87,37.12,-31.42,259529
5.03,6.17,5.23,-0.94,0.58,-0.11,7.73,34.39,-30.34,259563
6.72,6.24,4.62,-0.55,0.48,-1.01,7.88,34.74,-29.52,259597
7.31,6.83,4.51,-0.14,0.14,-0.55,7.09,35.94,-29.44,259631
7.09,7.45,3.82,0.21,0.14,-0.31,7.13,35.43,-29.13,259666
9.76,8.87,4.33,0.51,-0.17,0.03,7.34,35.43,-30.34,259700
7.19,8.54,1.14,0.63,0.50,-0.20,7.44,35.15,-30.74,259734
10.57,8.23,1.23,0.05,-0.90,0.44,7.98,34.79,-31.41,259768
11.29,9.76,2.55,1.42,-0.86,0.09,7.83,34.16,-33.19,259802
8.86,9.70,1.57,1.27,-1.54,-0.66,6.53,32.93,-35.14,259836
11.10,10.57,4.05,1.89,-3.41,0.57,4.65,31.85,-37.39,259871
9.83,10.18,5.00,1.24,-3.32,0.44,2.79,29.99,-39.93,259905
8.02,8.58,4.74,0.35,-3.29,0.26,0.32,29.52,-39.78,259939
4.36,8.66,5.28,-1.01,-3.84,1.08,-1.51,29.82,-37.64,259973
4.60,6.56,7.90,-0.92,-2.81,0.19,-3.19,30.34,-37.21,260007
0.87,7.52,7.99,-1.34,-2.30,-0.51,-4.66,30.91,-35.94,260041
-2.27,8.35,6.93,-1.95,-1.32,-1.87,-8.18,30.88,-33.08,260076
-1.80,6.59,8.69,-2.51,-1.43,-2.69,-13.05,31.58,-29.96,260110
0.18,5.86,10.02,-1.95,-1.11,-0.88,-15.67,30.99,-26.57,260144
2.60,4.05,12.66,-0.96,0.95,-1.73,-18.81,30.53,-25.99,260178
5.48,0.39,11.43,-1.81,2.38,-1.27,-20.90,30.36,-26.29,260212
7.40,0.41,11.89,-0.43,2.56,-0.46,-22.55,29.79,-28.43,260247
7.38,2.12,11.81,1.17,3.25,0.37,-21.84,29.66,-32.05,260281
8.16,3.82,12.58,0.37,4.50,0.30,-19.10,29.83,-37.68,260315
11.66,1.53,12.97,-0.29,4.07,0.48,-15.83,30.52,-40.35,260349
11.57,2.31,12.07,0.45,4.90,1.09,-10.36,31.06,-44.07,260383
9.70,4.49,11.65,1.22,5.23,0.50,-2.86,30.55,-46.67,260417
11.34,6.46,12.99,0.55,4.23,-0.36,2.21,29.85,-47.27,260452
10.94,7.62,12.40,-0.41,4.25,-0.54,6.64,30.75,-45.38,260486
7.41,10.93,9.85,-0.70,3.37,-0.58,11.20,31.82,-41.96,260520
8.01,12.13,10.51,-2.80,2.69,-1.00,13.64,33.35,-36.71,260554
4.95,13.60,9.20,-2.33,2.44,-2.55,12.67,35.66,-29.33,260588
1.34,13.44,8.56,-3.06,0.95,-0.96,12.06,36.73,-23.50,260623
2.18,9.43,4.98,-4.37,0.35,-1.35,11.52,36.61,-14.47,260657
-0.32,5.83,5.75,-3.42,-0.03,-2.11,8.77,36.01,-8.43,260691
-4.98,7.22,8.56,-3.87,-0.61,-0.58,8.20,33.73,-3.60,260725
-2.29,5.87,7.98,-5.10,-1.81,0.24,10.29,29.52,4.41,260759
-2.37,4.91,6.83,-3.36,-1.38,-1.01,11.06,25.72,8.32,260793
-4.45,1.65,5.67,-2.27,-1.14,-3.89,9.21,24.29,10.16,260828
-1.38,2.89,7.01,-3.52,-1.00,-3.36,7.03,21.73,13.99,260862
0.24,1.42,7.12,-1.64,-0.41,-3.10,5.31,19.45,16.00,260896
-0.89,2.83,5.30,0.78,-1.52,-1.49,4.30,20.27,15.24,260930
2.04,1.48,8.19,1.14,-1.26,-2.72,3.90,21.15,13.97,260964
1.86,0.13,11.36,2.78,-0.80,-2.41,2.92,23.56,11.24,260999
0.58,-1.21,6.86,-1.97,0.51,-0.66,1.80,24.17,11.75,261033
0.75,-5.30,10.78,-1.20,0.93,-0.58,0.73,22.57,12.95,261067
-0.08,-2.71,7.77,-0.08,0.18,-1.22,-1.56,23.66,12.96,261101
-0.09,-4.17,6.37,0.31,0.78,-1.19,-2.16,23.62,11.77,261135
1.63,-3.45,8.70,1.53,0.73,-1.33,-3.95,24.50,11.09,261169
2.56,-3.19,9.05,2.23,0.57,-1.05,-5.76,26.10,8.43,261204
3.15,-0.98,9.82,1.82,-0.03,-1.16,-7.06,27.49,6.49,261238
3.29,-2.26,10.88,0.17,-0.56,-0.45,-7.29,28.06,6.47,261272
4.16,-3.80,10.49,0.41,-0.14,-0.06,-6.66,28.38,6.64,261306
2.86,-1.83,11.00,0.37,0.08,0.46,-6.05,28.75,6.40,261340
2.52,-2.40,7.44,-0.63,-0.24,0.80,-3.99,28.14,7.06,261375
2.42,-0.65,8.97,0.35,-0.08,0.66,-3.32,27.95,7.59,261409
2.06,0.11,10.20,0.18,0.46,0.96,-1.17,27.57,8.17,261443
0.58,-0.02,9.50,-0.53,-0.95,1.11,1.36,27.45,9.49,261477
1.24,-0.79,9.41,-0.64,-1.10,1.03,3.73,26.45,10.65,261511
1.30,-0.16,8.38,-0.29,-0.45,1.02,6.53,25.74,10.10,261545
-0.41,-0.73,8.88,-0.14,-0.14,0.49,7.72,24.42,11.91,261580
1.07,0.02,9.60,0.33,-0.28,0.02,8.55,24.07,12.31,261614
0.63,-0.88,8.83,-0.60,0.33,0.40,9.05,23.17,13.05,261648
1.82,-1.40,7.74,0.94,-0.71,-0.47,9.46,23.06,12.20,261682
2.53,-1.21,9.40,0.89,-1.23,-0.21,10.58,24.04,10.68,261716
4.09,-1.17,9.75,0.26,-1.20,0.33,12.41,24.09,10.89,261750
1.36,-1.48,10.36,-1.00,-1.13,0.78,14.57,21.88,12.00,261785
3.73,-3.32,10.99,-0.20,-0.51,-0.17,15.99,21.08,12.38,261819
4.00,-2.32,9.41,0.09,-0.58,-0.23,16.28,20.46,12.00,261853
4.50,-2.27,9.45,0.24,0.13,-0.29,16.41,20.45,12.57,261887
3.01,-2.54,8.49,0.49,0.18,-0.38,15.78,20.23,12.12,261921
4.16,-0.59,9.92,0.85,0.38,-0.37,15.43,20.49,11.30,261956
4.07,-0.14,10.33,0.82,0.81,-0.32,15.35,21.08,11.31,261990
3.90,0.03,10.46,-0.40,-0.62,0.16,14.53,20.26,11.27,262024
4.40,-0.42,8.54,-0.80,-0.73,0.77,16.73,18.25,11.62,262058
3.35,0.43,9.89,-0.03,-0.24,0.40,17.36,17.58,12.03,262092
2.89,-0.64,9.60,-0.14,0.56,0.34,17.48,16.71,13.07,262126
2.61,0.17,8.05,0.52,0.38,0.12,17.38,16.03,12.25,262161
1.49,0.30,9.54,0.29,0.33,0.20,17.26,15.81,12.51,262195
1.50,0.64,9.07,0.30,0.57,0.14,17.32,15.01,12.16,262229
1.45,0.85,9.35,0.60,0.57,-0.05,17.00,15.57,11.97,262263
1.11,0.47,9.89,0.52,0.84,-0.25,15.71,15.83,11.66,262297
1.17,-1.66,11.09,0.19,1.43,0.25,14.40,15.29,11.93,262332
-0.61,-0.45,10.17,0.06,1.57,0.48,13.65,14.67,12.73,262366
-1.06,-0.56,11.92,-0.07,2.22,-0.30,10.60,14.82,13.71,262400
2.54,-2.70,10.16,-0.42,3.13,0.01,8.36,14.06,14.31,262434
-0.76,-1.63,6.36,-0.14,2.62,1.11,5.14,13.10,15.32,262468
-4.32,-0.98,11.08,-0.92,1.86,0.55,3.60,12.06,16.50,262502
-2.53,-1.01,8.44,-0.33,2.34,0.28,1.17,11.24,16.25,262537
-5.66,-2.03,7.48,-1.09,2.99,-0.03,-2.59,9.97,16.65,262571
-5.09,-4.10,8.85,-1.35,2.36,-0.05,-5.44,8.29,16.53,262605
-7.06,-2.73,7.14,-0.95,2.17,0.22,-7.54,6.64,16.63,262639
-7.15,-2.85,4.70,-0.87,0.86,-0.37,-9.75,5.69,16.73,262673
-5.38,-3.35,7.26,-0.69,1.08,-0.33,-9.98,4.74,15.73,262708
-7.02,-3.21,4.87,0.19,1.34,0.11,-10.93,4.24,14.40,262742
-8.06,-2.70,5.83,0.54,0.40,-0.18,-12.01,5.19,13.94,262776
-6.24,-3.25,7.46,0.62,-1.21,0.04,-11.39,5.54,14.26,262810
-7.19,-2.05,6.84,0.15,-0.54,0.55,-10.27,5.85,13.53,262844
-6.43,-1.87,6.96,0.19,-1.10,0.36,-8.97,5.67,13.11,262878
-6.44,-1.63,6.42,0.31,-1.77,0.57,-7.45,5.69,13.26,262913
-4.73,-1.67,11.26,-1.59,-5.40,-0.57,-2.25,4.71,14.81,262947
-3.65,-0.99,10.80,0.04,-8.05,0.25,5.50,4.02,14.92,262981
2.16,-2.50,8.07,-2.36,-6.44,1.27,13.49,0.85,11.79,263015
1.66,-4.63,10.03,0.63,-5.63,0.70,18.40,0.57,9.57,263049
-3.24,-0.14,8.11,-2.59,-5.51,3.73,24.04,-3.00,5.25,263083
2.28,-3.17,8.20,-1.92,-1.61,0.78,25.84,-5.90,3.29,263118
5.43,-5.56,6.15,-0.58,-2.99,0.59,27.71,-6.90,0.42,263152
-0.52,-3.56,5.22,-1.21,-2.35,1.71,29.26,-8.84,-1.81,263186
5.44,-5.51,7.36,2.46,0.75,-0.44,28.94,-7.85,-1.99,263220
3.98,-3.34,10.74,0.45,0.23,-0.08,28.33,-6.55,-1.04,263254
2.41,-4.10,9.29,-1.12,-1.24,1.09,28.78,-8.17,-2.10,263289
4.73,-12.07,2.82,-2.84,-1.74,2.83,28.66,-11.20,-3.60,263323
2.90,-4.15,7.34,-0.42,-1.78,2.45,29.86,-15.07,-5.73,263357
1.40,-4.85,6.95,-0.93,-1.09,1.48,29.36,-17.03,-7.13,263391
3.91,-5.59,5.04,-0.73,0.54,0.01,29.35,-17.14,-6.81,263425
6.65,-9.39,4.35,-0.05,-1.72,0.99,29.36,-17.38,-8.01,263459
2.75,-6.04,6.76,0.64,0.10,0.56,29.41,-17.68,-8.55,263494
3.29,-6.33,6.34,-0.23,0.56,0.31,29.13,-18.24,-7.54,263528
4.45,-8.59,4.20,-0.35,-0.05,0.35,28.98,-18.09,-7.22,263562
0.91,-7.29,5.44,0.20,0.30,0.39,28.84,-18.34,-6.99,263596
3.54,-8.00,4.50,0.30,0.91,-0.51,28.62,-18.33,-5.55,263630
5.15,-8.58,5.77,0.93,1.68,-0.70,28.24,-16.69,-4.24,263665
2.58,-6.75,5.57,-0.27,0.61,0.15,27.52,-16.57,-3.38,263699
1.68,-7.37,5.83,0.15,1.50,-0.60,26.64,-15.55,-2.59,263733
1.86,-6.57,5.80,0.04,1.61,-0.76,25.87,-15.07,-0.04,263767
4.61,-17.25,0.41,1.70,3.48,-1.08,25.15,-14.13,1.96,263801
-1.30,-0.74,10.54,4.05,0.90,-0.95,23.22,-11.30,3.35,263835
-4.09,2.57,13.40,0.57,2.63,-2.38,21.84,-8.23,5.48,263870
1.62,-8.74,13.20,-1.95,2.49,-4.13,19.28,-5.14,8.71,263904
0.59,-5.60,7.79,-0.75,2.66,-1.96,16.98,-4.47,9.87,263938
-1.84,-4.44,8.92,-0.42,1.96,-1.76,14.92,-4.33,10.92,263972
-0.09,-3.78,9.18,-0.83,1.47,-2.32,12.86,-3.74,11.55,264006
-0.65,-6.83,6.61,-0.94,1.15,-2.02,11.06,-3.87,12.31,264041
-0.36,-5.65,7.23,-0.30,1.24,-1.60,8.92,-3.70,13.65,264075
2.42,-8.13,7.74,-1.93,1.85,-1.83,7.12,-4.50,14.28,264109
-0.76,-9.62,5.51,-0.96,1.77,-1.49,4.65,-5.67,14.26,264143
1.02,-6.58,12.36,6.01,0.74,-1.13,3.39,-0.26,13.30,264177
0.80,-5.24,7.43,4.60,1.73,-1.12,0.47,4.87,12.45,264211
0.91,-3.23,8.33,2.92,1.25,-0.39,-1.75,7.82,10.95,264246
-1.68,-4.39,11.80,-0.12,1.66,-1.56,-4.14,7.59,10.14,264280
-0.82,-4.47,11.16,-0.39,-0.31,-1.81,-6.01,7.53,10.52,264314
0.63,-3.23,7.10,-1.04,-0.77,-0.92,-5.93,5.90,10.92,264348
-0.05,-5.73,7.23,-1.24,-0.37,-0.24,-5.86,4.43,12.07,264382
-0.15,-5.97,7.22,-0.15,-0.15,-0.16,-6.01,4.21,11.75,264416
0.53,-5.36,6.31,0.14,-0.27,0.00,-5.61,4.79,11.85,264451
0.14,-5.81,8.07,0.61,-0.64,0.37,-5.96,5.26,11.24,264485
0.50,-6.46,6.83,1.24,-0.95,0.68,-5.32,6.43,11.52,264519
1.35,-4.56,7.91,1.78,-0.59,0.81,-5.06,8.11,10.51,264553
1.22,-3.66,7.27,1.12,-0.49,0.97,-3.81,9.78,10.08,264587
-0.95,-3.39,10.07,2.67,0.28,2.17,-3.49,11.75,8.29,264622
-1.31,-2.67,11.28,0.31,-0.02,0.71,-3.51,13.31,7.94,264656
0.78,-2.03,7.34,0.30,-0.61,0.34,-3.08,13.40,7.28,264690
1.29,-3.31,9.27,1.68,-0.25,0.76,-2.35,14.73,6.77,264724
-0.16,-4.91,12.29,2.05,-0.56,0.14,-2.22,16.37,5.12,264758
1.85,-1.88,10.11,1.34,-0.42,-0.54,-2.60,17.71,3.71,264792
2.28,-0.95,10.47,1.02,0.28,-0.65,-3.36,18.08,3.20,264827
3.02,-1.47,10.60,2.35,1.17,0.06,-4.71,19.45,1.80,264861
1.54,-1.73,11.45,2.53,0.89,0.91,-4.56,20.55,-1.13,264895
2.94,0.83,10.72,1.61,-0.12,1.04,-3.61,21.66,-2.73,264929
2.02,-1.40,10.90,2.97,-0.65,0.64,-2.59,23.00,-5.77,264963
3.31,-0.71,11.80,3.65,0.53,-0.27,-3.01,23.53,-10.04,264998
-0.58,1.98,9.62,2.27,1.23,-0.42,-4.30,24.17,-13.77,265032
-0.72,2.74,8.51,2.74,0.05,-0.38,-4.12,24.96,-16.79,265066
-0.58,3.63,11.13,0.56,1.61,0.08,-4.02,24.77,-18.04,265100
-1.61,2.17,10.16,1.02,3.95,-0.49,-4.41,24.95,-19.28,265134
-4.14,5.67,0.09,3.02,-3.74,2.44,-2.65,24.92,-21.16,265168
-1.01,10.19,14.86,0.54,-0.96,0.16,-1.71,25.12,-22.01,265203
-3.68,6.08,6.20,-0.28,-0.26,-1.47,-2.91,25.01,-21.81,265237
-1.58,5.75,9.39,-2.16,-1.06,-0.88,-3.71,25.14,-20.46,265271
-0.72,3.53,10.18,-2.16,-1.47,-1.33,-5.16,24.88,-17.11,265305
-1.95,2.75,8.97,-2.23,-1.03,-1.00,-6.40,25.26,-14.40,265339
-2.66,2.25,7.72,-2.62,-1.12,-0.62,-6.42,24.93,-11.74,265374
-1.89,0.08,8.94,-2.91,-2.29,-0.76,-7.23,24.09,-7.59,265408
-0.31,-0.06,10.80,-2.65,-2.18,-0.70,-6.74,23.05,-5.17,265442
2.04,1.74,12.83,-0.20,-1.71,-1.60,-7.21,22.46,-2.89,265476
0.96,0.43,10.26,-0.69,-0.10,-0.98,-8.32,21.84,-2.89,265510
-0.82,1.14,7.84,-1.28,1.01,-0.36,-8.90,21.94,-1.93,265544
-1.46,1.82,8.60,-0.41,0.79,-1.74,-10.54,21.25,-0.67,265579
-1.50,-0.14,7.60,0.36,0.75,-1.39,-12.23,20.40,-1.64,265613
-0.97,-0.07,8.76,0.31,0.14,-1.26,-13.96,19.89,-2.27,265647
-0.65,-0.32,9.52,0.79,0.61,-0.79,-14.67,20.27,-3.68,265681
-1.42,-0.17,8.34,0.62,0.93,-0.34,-15.42,20.23,-3.90,265715
-1.85,1.46,9.09,0.44,0.30,1.07,-15.76,20.39,-5.82,265750
-1.64,0.47,10.30,1.80,-0.22,-0.11,-15.27,20.96,-7.02,265784
-1.77,0.39,10.03,0.97,0.58,0.34,-15.32,21.47,-7.86,265818
-1.85,0.84,10.49,1.00,0.51,0.20,-15.90,22.04,-8.96,265852
-1.86,2.64,11.17,2.46,0.62,-0.32,-16.05,22.07,-11.88,265886
-3.75,1.47,7.59,2.70,0.75,-1.08,-17.61,22.07,-15.30,265920
-3.77,2.02,8.51,1.94,-0.20,-0.75,-18.47,21.79,-17.17,265955
-6.77,1.35,4.87,2.03,-1.17,-0.36,-19.20,21.56,-17.58,265989
-4.89,1.62,7.82,-1.42,-3.82,3.28,-16.65,22.99,-14.44,266023
2.98,0.16,11.11,-1.90,-4.01,2.49,-14.19,23.57,-9.66,266057
6.59,4.72,13.17,0.35,-1.89,1.66,-11.08,24.29,-8.70,266091
5.34,8.95,12.39,2.45,-0.34,-0.14,-10.70,24.86,-10.35,266125
3.07,8.40,9.40,1.30,0.39,-0.41,-11.21,24.57,-11.66,266160
2.55,7.37,7.91,1.08,0.43,-0.68,-12.42,24.35,-13.21,266194
3.54,6.83,7.92,0.67,0.49,-0.23,-12.66,24.13,-14.41,266228
3.68,6.47,6.81,0.66,1.25,-0.23,-12.89,23.72,-15.14,266262
2.68,8.13,6.29,0.51,1.54,-0.46,-13.10,23.53,-16.34,266296
2.82,5.85,4.72,-0.33,1.29,-0.18,-13.46,23.28,-17.10,266331
3.81,3.93,5.73,0.40,-0.59,-0.33,-13.88,22.74,-16.53,266365
1.72,2.51,5.41,0.23,1.17,0.41,-14.12,22.14,-17.20,266399
0.65,4.77,6.24,-0.02,0.79,1.58,-12.15,23.40,-16.92,266433
0.10,6.48,7.56,1.41,1.24,0.03,-11.58,23.43,-18.33,266467
0.83,6.59,7.67,1.62,1.04,0.27,-11.50,23.76,-19.54,266501
-0.45,7.50,6.84,1.93,1.45,-0.02,-11.27,23.27,-21.67,266536
-1.07,8.18,6.38,1.65,1.08,0.19,-11.21,23.27,-23.40,266570
-3.13,6.08,5.32,1.14,0.60,0.63,-10.13,22.26,-24.88,266604
-1.11,7.07,6.25,0.67,-0.24,0.06,-9.73,22.45,-25.77,266638
-1.95,8.17,5.61,1.13,1.12,0.84,-9.49,22.03,-26.16,266672
-3.54,8.06,4.56,1.17,0.94,-0.16,-8.96,21.67,-28.12,266707
-2.94,8.75,5.16,0.47,0.96,0.66,-8.10,21.28,-27.70,266741
-2.43,7.35,5.54,-0.99,0.51,0.51,-7.41,21.10,-27.29,266775
-3.30,6.23,5.49,-1.13,0.70,1.02,-6.17,21.28,-25.84,266809
-2.64,5.27,6.91,-1.36,0.57,1.10,-5.13,22.08,-24.26,266843
-2.01,5.13,7.59,-0.73,1.02,1.13,-4.25,21.84,-23.88,266877
-2.49,6.26,7.31,-0.36,0.57,-0.01,-4.00,22.04,-22.51,266912
-1.74,7.98,8.10,0.47,0.02,-0.37,-4.12,21.67,-22.93,266946
-1.37,8.67,8.61,0.64,-0.41,-0.44,-5.38,21.05,-22.71,266980
-1.27,7.46,6.86,0.86,-0.51,-0.82,-5.89,20.67,-23.27,267014
1.64,7.24,8.88,0.40,-0.81,-0.64,-6.78,19.51,-23.18,267048
1.59,8.22,9.29,0.51,-0.36,-1.27,-7.60,18.68,-23.00,267083
-0.02,8.47,7.99,0.10,-0.69,-1.69,-9.47,17.48,-22.54,267117
-0.89,6.70,5.83,0.67,-0.75,-2.44,-11.34,16.02,-22.13,267151
-0.09,6.02,7.20,1.21,-1.57,-3.07,-14.02,13.64,-22.08,267185
-2.32,5.82,6.31,1.34,-0.98,-2.68,-15.95,11.60,-21.97,267219
-4.10,7.71,6.30,1.36,-1.11,-2.32,-17.20,9.09,-21.70,267253
-5.65,8.93,7.06,1.86,-1.63,-3.28,-18.59,6.18,-21.13,267288
-4.19,8.94,6.81,0.70,-1.60,-0.96,-18.75,4.66,-20.83,267322
-3.96,9.19,6.32,-0.06,-0.44,0.16,-17.98,3.48,-19.53,267356
-3.01,8.09,5.08,-0.58,-0.74,1.28,-17.89,3.60,-19.45,267390
-0.90,6.37,4.74,-0.70,-0.70,0.68,-16.57,3.54,-17.92,267424
-0.99,4.25,3.44,-0.56,-0.99,-0.25,-16.33,2.86,-18.01,267458
1.61,2.80,3.59,-0.21,-1.20,0.55,-15.14,1.61,-16.19,267493
4.66,6.50,5.55,-0.32,-0.57,2.09,-13.86,2.06,-15.87,267527
9.28,2.70,5.46,-1.10,0.93,1.62,-12.66,1.84,-15.57,267561
3.36,3.49,3.08,1.97,2.14,0.13,-12.36,0.92,-16.21,267595
-3.80,13.92,1.98,0.11,2.20,1.96,-11.75,-0.22,-16.06,267629
-4.44,10.21,0.61,-0.02,1.11,0.88,-11.56,-0.58,-16.44,267664
-3.51,13.70,3.75,0.34,0.39,1.43,-10.90,-1.67,-15.43,267698
-5.96,18.05,6.34,-0.73,0.61,1.16,-10.76,-1.84,-16.05,267732
-6.58,18.68,7.87,-0.76,-0.52,0.11,-10.44,-2.48,-15.33,267766
-4.82,13.68,7.79,-2.01,-1.82,-0.90,-10.30,-3.77,-15.58,267800
-4.30,9.08,7.14,-2.86,-1.91,-1.26,-9.69,-4.63,-14.81,267834
-0.78,7.04,8.97,-2.94,-2.70,-1.50,-8.78,-5.70,-14.13,267869
1.14,3.78,8.37,-1.70,-1.90,-1.82,-8.42,-6.66,-14.32,267903
0.72,2.25,8.50,-1.36,-1.86,-1.09,-7.72,-7.51,-14.59,267937
1.98,2.82,8.49,-1.73,-1.05,-0.94,-7.79,-8.89,-15.68,267971
1.76,1.75,7.92,-1.35,-0.80,-1.49,-7.25,-9.50,-15.39,268005
0.23,2.06,8.16,-0.17,-0.86,-1.34,-6.66,-9.54,-16.03,268040
0.32,2.12,7.96,-0.05,-0.65,-1.23,-6.14,-9.98,-17.16,268074
0.76,2.81,8.47,-0.38,-0.24,-1.65,-5.64,-10.89,-18.28,268108
1.04,2.74,9.00,0.03,-0.43,-1.76,-5.01,-10.86,-17.93,268142
0.42,1.94,8.59,0.35,-0.73,-1.63,-4.17,-11.50,-18.52,268176
0.12,2.56,9.59,-0.28,-0.19,-1.30,-4.09,-12.26,-19.07,268210
-1.53,3.12,9.60,-0.45,-0.39,-0.79,-3.32,-12.61,-20.23,268245
