ax,ay,az,gx,gy,gz,mx,my,mz,timestamp
-1.02,9.61,-1.68,0.21,-0.06,-0.04,20.96,-1.51,-50.20,121007
-1.41,9.48,-1.46,0.23,0.02,-0.02,21.16,-1.55,-51.13,121041
-1.23,9.49,-1.50,0.14,-0.09,-0.05,21.91,-1.97,-50.72,121076
-1.39,9.89,-1.39,-0.05,-0.21,-0.11,21.44,-1.86,-50.57,121110
-1.24,11.58,-0.76,-0.36,-0.48,-0.07,21.13,-1.94,-51.40,121144
-2.58,10.62,-1.91,0.21,-0.09,-0.07,20.90,-1.78,-50.23,121178
-1.12,9.87,-1.86,0.13,-0.15,-0.10,21.13,-1.58,-51.13,121212
-0.48,9.60,-2.04,0.08,-0.17,-0.14,21.12,-1.80,-50.72,121247
-0.43,9.73,-1.43,0.07,-0.09,-0.15,20.99,-1.52,-51.29,121281
-0.59,9.70,-0.92,0.07,-0.02,-0.11,20.91,-1.30,-50.69,121315
-1.21,9.66,-0.87,0.08,-0.04,-0.05,21.08,-1.70,-50.29,121349
-1.85,9.58,-1.05,0.13,-0.08,-0.05,21.37,-2.18,-50.98,121383
-1.71,9.29,-1.20,0.16,-0.11,-0.10,21.41,-2.03,-51.10,121417
-1.51,9.52,-1.30,0.20,-0.15,-0.13,21.79,-2.40,-51.29,121452
-1.07,9.60,-1.38,0.23,-0.15,-0.13,21.15,-2.37,-51.18,121486
-1.31,9.48,-1.74,0.20,-0.21,-0.09,20.97,-2.16,-51.29,121520
-1.02,9.49,-1.73,0.17,-0.36,-0.04,20.91,-2.16,-51.80,121554
-0.59,9.62,-2.10,0.16,-0.34,0.03,20.80,-2.32,-51.93,121588
-0.17,9.74,-2.01,0.11,-0.24,-0.00,20.75,-2.50,-51.40,121623
-1.26,9.57,-2.01,0.12,-0.12,-0.04,20.74,-2.41,-51.78,121657
-1.11,9.63,-1.76,0.13,-0.19,0.04,20.10,-2.75,-51.90,121691
-1.87,9.78,-1.03,0.16,-0.17,0.00,20.45,-3.26,-51.53,121725
-3.18,10.09,-0.91,0.17,-0.24,-0.15,20.13,-3.33,-52.02,121759
-4.28,10.12,-1.51,0.26,-0.22,-0.79,20.21,-3.00,-52.56,121793
-6.91,9.70,-4.79,0.43,-0.72,-1.18,19.47,-2.43,-52.48,121828
-5.77,18.04,2.89,0.92,-1.59,-1.32,16.73,-1.75,-53.80,121862
-2.60,11.75,-5.12,0.82,-1.63,-1.50,14.56,-1.77,-55.89,121896
-2.79,9.15,-1.40,0.33,-1.41,-1.71,12.74,-1.10,-56.40,121930
-3.65,5.83,-1.15,-0.09,-0.97,-1.90,10.41,0.57,-57.42,121964
-3.15,7.24,-2.80,0.23,-0.82,-1.93,8.67,0.91,-57.63,121999
-2.71,6.04,-1.67,0.15,-1.15,-1.52,6.88,0.98,-57.67,122033
-0.78,6.66,-0.66,0.03,-0.92,-1.12,5.14,1.52,-58.64,122067
-1.58,6.40,-1.16,-0.07,-0.23,-0.95,4.08,1.94,-57.99,122101
-2.62,5.80,-1.47,-0.04,0.36,-0.70,4.40,2.31,-57.66,122135
-3.01,2.86,-1.63,-0.02,0.21,-0.29,4.52,2.29,-56.84,122169
1.63,22.57,5.86,2.00,-1.73,0.44,3.92,1.43,-57.02,122204
-4.00,9.24,-2.62,0.10,-0.40,-0.33,3.30,0.35,-57.94,122238
-4.78,6.64,-1.47,0.52,0.11,-0.59,3.58,-0.12,-57.95,122272
-6.27,5.86,-1.42,0.52,-0.64,0.18,3.08,-0.75,-58.13,122306
-4.06,5.88,-0.67,0.44,-0.25,0.43,2.98,-0.47,-57.94,122340
-3.96,9.36,-0.73,0.48,0.01,0.60,3.29,-1.86,-57.83,122375
-4.28,11.93,-1.27,0.33,0.03,0.99,4.19,-1.90,-57.48,122409
-5.71,9.09,-1.98,0.16,0.22,0.91,4.82,-2.34,-58.20,122443
-6.55,8.71,-2.06,0.38,-0.13,0.92,5.03,-3.24,-58.36,122477
-9.71,9.43,-3.03,0.60,-0.61,0.26,5.36,-3.27,-58.58,122511
-9.38,7.86,-3.75,0.55,-0.93,-0.68,3.86,-4.08,-59.09,122545
-7.22,4.26,-3.22,-0.29,-0.92,-1.19,2.95,-2.88,-58.96,122580
-10.13,5.78,-4.13,0.29,-0.78,-1.53,1.40,-2.60,-59.89,122614
2.16,8.45,-1.86,-0.34,-1.04,-1.26,-0.91,-2.69,-59.34,122648
0.49,7.71,-2.42,-0.59,0.55,-1.18,-0.50,-1.75,-58.92,122682
-1.82,7.70,-3.13,-0.27,1.60,-0.84,1.83,-1.52,-58.48,122716
-2.92,7.19,-3.65,-0.05,1.32,-0.28,3.33,-1.04,-58.39,122750
17.57,11.81,-10.34,-0.55,-3.55,1.57,2.62,-2.24,-58.67,122785
-5.27,5.00,-2.38,0.08,0.10,-0.24,2.82,-2.19,-58.75,122819
-5.80,4.81,-1.42,0.14,-0.33,0.29,2.78,-2.92,-58.75,122853
-3.47,10.81,-2.04,0.43,-0.68,0.50,2.56,-3.76,-59.56,122887
-6.27,7.09,0.04,-0.18,0.01,0.24,3.10,-2.92,-58.78,122921
-6.79,7.82,-0.27,-0.48,0.32,0.28,3.58,-2.62,-58.24,122956
-6.65,7.59,-1.64,-0.79,0.92,0.23,4.75,-1.51,-58.75,122990
-4.97,7.73,-2.47,-1.29,1.36,0.48,6.72,-0.92,-58.26,123024
-1.84,9.28,-2.88,-1.74,2.11,0.43,10.19,1.26,-55.86,123058
0.08,9.29,-4.55,-1.81,2.29,0.59,13.36,2.66,-54.18,123092
-1.70,9.54,-4.13,-1.67,2.49,0.76,17.04,4.25,-51.52,123126
-3.79,10.34,-4.07,-1.74,2.38,0.27,20.75,5.13,-48.14,123161
-3.70,8.36,-5.05,-1.55,2.27,-0.29,23.08,6.21,-45.57,123195
-4.44,6.75,-4.37,-1.63,2.45,-0.81,25.15,8.11,-41.46,123229
-4.57,7.02,-5.36,-2.01,3.23,-1.53,26.29,10.30,-37.26,123263
-6.49,5.37,-6.62,-2.08,3.38,-1.75,26.72,12.36,-31.60,123297
-5.26,7.93,-6.53,-1.29,2.63,-1.05,26.50,13.88,-26.19,123332
-2.97,10.01,-1.80,-1.21,2.35,-0.78,26.07,15.05,-23.15,123366
4.63,9.46,-2.07,-1.28,2.39,-0.28,25.91,15.02,-18.71,123400
-1.68,9.57,-4.85,-1.77,3.28,-0.10,25.48,14.75,-14.10,123434
-4.92,3.06,-7.98,-1.50,2.40,-0.02,24.31,13.91,-10.57,123468
-3.95,4.28,-5.75,-0.28,1.19,0.47,23.24,12.74,-7.99,123502
-2.10,11.15,-4.06,-0.20,1.20,0.41,23.30,12.29,-6.30,123537
-4.92,9.19,-4.98,-1.12,2.18,-0.69,21.67,12.53,-3.14,123571
-7.12,6.90,-7.50,-1.10,2.04,-0.97,19.15,12.28,-1.67,123605
-8.09,8.21,-6.48,-0.78,1.80,-0.92,17.30,12.47,0.58,123639
-5.72,6.76,-3.47,-1.00,1.81,-1.08,14.53,11.97,2.76,123673
-5.86,10.27,-2.07,-0.86,1.72,-0.63,12.29,11.49,4.12,123708
-5.55,8.78,-4.92,-0.95,1.57,-0.75,10.14,11.15,5.93,123742
-3.33,7.13,-6.69,-0.84,1.32,-0.78,7.83,10.68,6.97,123776
-6.29,7.15,-5.93,-0.89,1.63,-0.74,5.71,10.27,7.94,123810
-6.54,8.72,-3.93,-1.18,1.73,-1.35,2.72,8.97,9.49,123844
-7.42,4.31,-3.64,-1.62,2.03,-1.91,-1.56,7.15,9.66,123878
-6.33,6.20,-4.09,-1.31,1.73,-1.63,-3.86,5.98,10.19,123913
-6.43,9.40,-2.94,-1.39,1.89,-1.56,-7.16,4.00,9.88,123947
-7.21,6.93,-2.69,-1.63,1.91,-1.65,-10.03,1.68,9.24,123981
-7.40,5.13,-1.69,-1.76,2.21,-1.58,-13.46,-0.16,9.62,124015
-4.46,9.19,-2.75,-1.53,2.28,-1.41,-16.87,-2.72,8.20,124049
-2.46,8.12,-4.80,-2.22,2.63,-1.44,-19.60,-4.82,5.98,124083
-1.38,9.00,-8.11,-2.36,3.11,-0.94,-23.00,-7.88,4.68,124118
3.88,10.86,-9.50,-2.36,3.31,-0.52,-26.31,-9.59,2.24,124152
-0.28,7.31,-6.39,-1.86,3.17,0.21,-28.88,-11.22,-1.13,124186
-0.61,5.02,-0.57,-1.02,1.91,2.13,-30.37,-9.59,-3.65,124220
-0.31,8.45,-1.97,-0.79,1.64,2.63,-31.54,-7.09,-5.32,124254
-14.22,0.33,-6.14,-0.97,1.27,1.51,-32.17,-4.59,-6.59,124289
-12.90,2.36,-11.65,0.52,-0.25,0.91,-32.53,-2.59,-7.22,124323
-7.00,10.19,-4.86,0.72,-0.26,-0.47,-32.67,-2.21,-7.09,124357
-7.12,10.13,-0.94,-0.91,1.08,-1.95,-33.46,-3.43,-8.04,124391
-2.77,13.15,-3.10,-1.07,1.47,-2.10,-34.51,-6.36,-9.79,124425
-3.89,10.99,-5.68,-1.71,1.65,-2.29,-35.65,-9.59,-11.78,124459
-4.95,4.65,-6.73,-1.58,1.32,-2.02,-35.94,-12.48,-12.44,124494
-4.58,5.38,-4.26,-1.27,0.94,-1.93,-36.07,-15.36,-14.26,124528
-2.77,6.81,-1.86,-1.30,1.38,-1.57,-36.17,-17.11,-16.98,124562
-3.83,10.84,-2.04,-1.92,2.11,-1.62,-36.14,-18.55,-19.45,124596
-6.31,5.61,-5.86,-2.50,2.64,-1.87,-36.17,-20.93,-23.49,124630
-5.82,6.81,-7.08,-1.73,1.91,-1.11,-35.97,-21.94,-26.56,124665
-3.08,7.02,-5.16,-1.98,2.16,-0.85,-34.74,-22.96,-29.00,124699
-3.24,10.26,-3.46,-2.13,2.83,-0.52,-33.44,-23.06,-34.04,124733
-4.71,9.69,-5.28,-2.12,2.89,-0.22,-32.48,-22.74,-38.28,124767
-2.31,9.64,-7.63,-1.60,2.70,0.18,-31.23,-21.72,-42.59,124801
-3.90,4.30,-5.26,-1.69,2.36,0.54,-29.19,-20.49,-45.19,124835
-10.40,5.32,-5.56,-1.45,2.28,-0.14,-27.76,-19.32,-47.95,124870
-11.11,-2.38,-4.59,-1.69,2.27,-0.71,-25.20,-18.77,-50.01,124904
-11.10,3.48,-6.81,-0.88,1.95,-1.00,-23.00,-18.52,-51.74,124938
-0.69,8.95,-6.50,-0.56,1.38,-0.90,-20.78,-18.50,-53.51,124972
4.95,14.35,-2.06,-0.60,1.34,-0.04,-18.88,-18.27,-54.31,125006
5.19,11.48,-0.74,-1.22,2.08,0.70,-16.97,-17.73,-56.11,125041
-0.57,10.55,-4.27,-1.12,2.14,1.10,-14.32,-16.16,-57.61,125075
-11.37,3.01,-7.70,-1.39,1.96,0.29,-11.96,-15.10,-59.24,125109
-12.21,4.20,-10.44,-0.67,0.92,-0.89,-9.94,-14.34,-59.56,125143
-9.90,2.43,-8.13,-0.22,0.11,-0.79,-9.68,-14.34,-59.84,125177
-3.01,11.05,-2.58,0.19,-0.22,-0.23,-10.20,-15.08,-59.40,125211
-2.76,12.72,0.50,-0.54,0.66,-0.63,-8.62,-14.72,-59.84,125246
-2.33,12.00,-1.57,-1.56,1.95,-1.46,-6.20,-13.33,-61.01,125280
-3.71,9.12,-7.76,-1.94,2.47,-1.81,-3.65,-11.05,-61.46,125314
-1.40,9.65,-10.38,-2.27,2.82,-2.09,0.66,-8.33,-61.52,125348
1.12,4.19,-6.99,-3.48,4.55,-2.28,5.69,-4.62,-59.53,125382
-1.78,7.29,-0.64,-2.99,5.08,-1.34,12.86,1.05,-56.28,125416
0.69,12.39,-2.04,-1.89,4.25,-0.51,17.76,2.82,-52.91,125451
-5.15,7.80,-6.82,-0.44,1.29,0.97,21.03,3.70,-51.34,125485
-3.23,7.59,-4.97,-0.22,0.65,1.59,23.36,2.40,-49.88,125519
-5.85,8.74,-2.99,-0.71,1.35,0.91,25.50,1.49,-48.48,125553
-9.53,6.34,-5.93,-1.14,1.77,-0.11,27.83,2.21,-44.83,125587
-11.92,6.97,-8.10,-0.69,1.41,-0.68,29.39,2.75,-42.66,125622
-5.07,9.83,-6.42,-0.22,0.31,-0.66,29.33,3.57,-41.46,125656
-6.06,9.85,-2.46,-0.66,0.89,-1.19,29.45,4.94,-38.85,125690
-7.08,6.59,-1.06,-1.26,1.54,-1.77,29.87,6.78,-36.66,125724
-2.59,7.77,-2.95,-1.23,1.65,-1.52,29.67,8.92,-32.71,125758
-2.03,11.49,-4.15,-1.70,2.28,-1.53,29.11,10.99,-30.08,125792
-2.25,11.87,-4.68,-2.48,3.31,-1.98,28.35,12.80,-23.69,125827
-0.37,7.05,-7.05,-3.49,4.71,-2.29,26.02,14.37,-16.16,125861
0.09,8.06,-5.40,-3.44,5.24,-1.92,22.62,14.75,-8.46,125895
0.42,13.54,-5.36,-2.04,4.21,-0.76,19.32,13.74,-2.53,125929
-3.44,6.45,-8.41,-1.37,2.64,0.08,16.35,12.80,1.01,125963
-3.80,3.72,-7.09,-0.96,1.97,0.72,15.14,12.19,2.65,125998
-5.05,4.33,-4.39,-0.62,1.32,1.02,14.22,11.28,3.45,126032
-7.24,6.95,-4.03,0.03,0.63,1.14,14.21,10.68,4.40,126066
-3.59,8.23,-2.98,0.05,0.16,0.88,14.86,9.89,4.09,126100
-5.13,9.28,-4.21,0.11,-0.01,0.74,15.20,10.04,4.63,126134
-9.54,7.27,-5.26,-0.84,1.17,-0.32,14.41,9.28,5.36,126168
-7.16,6.54,-6.44,-0.23,0.12,-0.16,13.52,9.37,6.33,126203
-1.50,11.49,-4.23,0.05,-0.42,0.24,13.87,9.53,5.99,126237
-8.48,8.83,-0.58,-0.68,0.53,-0.51,12.72,8.81,6.68,126271
-4.24,8.80,-1.43,-0.80,0.61,-1.20,10.58,9.32,7.82,126305
-0.75,8.87,-2.71,-1.02,1.14,-1.19,8.64,8.58,8.51,126339
3.65,14.68,-3.03,-1.50,1.98,-1.22,5.52,7.69,10.38,126374
5.22,16.46,-5.92,-2.95,3.87,-1.99,0.06,4.56,11.25,126408
0.46,10.43,-13.71,-4.48,5.27,-3.19,-7.00,0.50,10.92,126442
0.53,-1.45,-16.83,-5.24,6.05,-3.01,-15.19,-5.89,8.94,126476
-3.26,7.60,-11.44,-3.35,5.93,-1.11,-21.02,-9.53,5.52,126510
-9.17,8.80,-5.94,-2.73,4.65,-0.21,-25.18,-11.69,2.13,126544
5.11,5.94,-1.99,-0.70,2.43,0.96,-28.46,-11.33,-1.75,126579
-1.86,8.06,-4.07,-0.32,1.14,1.73,-29.87,-9.13,-3.24,126613
-3.92,6.67,-6.70,0.20,0.37,1.92,-30.68,-5.89,-4.63,126647
-5.06,9.80,-3.80,-0.09,0.83,1.18,-31.01,-3.65,-5.26,126681
-3.15,9.23,-5.51,-0.97,1.95,-0.07,-32.11,-3.13,-6.39,126715
-8.78,5.59,-8.41,-1.14,2.34,-0.74,-34.30,-3.71,-8.93,126750
-8.29,11.64,-7.14,-0.96,2.00,-1.34,-35.72,-4.33,-10.98,126784
-9.28,7.94,-4.87,-0.98,1.27,-1.39,-36.45,-6.49,-13.18,126818
-5.80,7.67,-5.21,-1.00,1.12,-1.44,-36.79,-7.32,-14.41,126852
-8.85,2.34,-4.71,-0.73,0.90,-1.34,-36.86,-8.59,-15.20,126886
-4.47,6.68,-1.19,-0.42,0.60,-0.94,-37.09,-10.13,-15.27,126920
-3.24,9.45,-0.40,-0.44,0.66,-0.85,-37.20,-11.18,-16.54,126955
-5.28,8.59,0.11,-0.73,1.02,-0.97,-37.71,-11.96,-18.61,126989
-1.89,10.97,-5.19,-1.06,1.49,-0.92,-37.81,-12.73,-20.43,127023
-2.54,14.19,-10.26,-1.82,2.43,-1.36,-37.93,-14.50,-22.58,127057
-0.82,3.65,-8.08,-3.12,3.35,-1.32,-37.46,-16.03,-27.39,127091
3.82,8.56,-7.50,-2.33,3.52,-0.40,-36.17,-17.13,-32.43,127125
2.14,14.05,-5.67,-2.24,4.32,-0.12,-34.76,-16.11,-38.79,127160
-5.71,7.14,-7.60,-2.08,3.06,0.62,-32.51,-15.08,-43.03,127194
-6.24,3.53,-9.47,-0.59,1.59,1.25,-31.34,-13.88,-44.24,127228
-2.99,7.96,-6.55,0.15,0.40,1.24,-30.53,-12.98,-45.18,127262
-2.68,9.58,-1.62,-0.48,1.11,0.50,-29.90,-12.66,-46.61,127296
-4.62,10.67,-2.93,-1.29,2.14,-0.47,-28.16,-12.32,-48.82,127331
-2.38,8.04,-7.86,-0.87,1.59,-0.22,-25.88,-12.12,-50.23,127365
-2.68,10.29,-6.03,-1.21,2.02,-0.78,-24.28,-12.44,-51.96,127399
-1.32,8.31,-5.27,-1.92,2.90,-1.48,-20.96,-11.71,-54.94,127433
-0.37,13.78,-5.33,-2.11,3.39,-1.41,-17.93,-10.93,-56.93,127467
1.09,11.35,-9.41,-2.90,4.01,-1.72,-14.32,-8.58,-58.99,127501
2.76,9.51,-14.03,-2.97,4.38,-1.45,-7.88,-6.34,-60.67,127536
-2.73,6.78,-12.64,-3.34,4.75,-1.64,-2.81,-3.07,-59.72,127570
-0.99,5.87,-11.86,-3.13,5.16,-1.48,4.60,1.74,-57.22,127604
-0.96,6.85,-11.80,-2.83,5.11,-0.96,10.54,5.38,-54.50,127638
-1.20,7.47,-8.87,-2.44,4.72,-0.30,15.77,7.35,-50.88,127672
-3.62,5.80,-10.09,-2.22,4.44,-0.15,21.57,9.37,-45.63,127707
-8.06,3.82,-13.05,-1.95,4.10,-0.07,24.77,10.45,-41.51,127741
-7.42,1.11,-7.47,-1.59,3.39,0.15,27.76,11.31,-35.52,127775
-13.02,2.58,-5.64,-0.43,2.03,0.35,29.38,11.02,-32.14,127809
-9.48,5.00,-4.79,0.44,0.15,0.45,30.49,10.48,-30.91,127843
-8.89,5.28,-4.01,1.07,-1.40,1.09,30.74,8.70,-32.78,127877
2.25,7.17,-5.64,1.27,-1.94,1.38,31.32,6.96,-34.93,127912
-1.34,8.66,-2.13,0.85,-1.24,1.44,32.42,4.09,-36.36,127946
-5.77,12.54,-2.17,0.46,-0.64,0.55,31.91,3.14,-37.65,127980
-6.81,7.57,-2.17,-0.23,-0.05,-0.44,32.17,3.32,-36.63,128014
-3.21,10.94,-4.58,-0.38,0.40,-0.84,31.98,4.90,-35.49,128048
-1.42,10.87,-3.68,-1.02,1.24,-1.46,32.18,6.14,-33.09,128083
2.94,10.73,-3.29,-1.88,2.17,-1.91,31.15,8.64,-29.36,128117
4.17,11.08,-3.78,-2.18,2.88,-1.71,30.31,10.17,-24.25,128151
4.82,15.43,-5.21,-2.98,4.06,-1.83,28.79,11.90,-18.28,128185
2.07,9.12,-10.81,-3.97,5.24,-2.38,24.88,12.23,-8.08,128219
1.87,8.39,-16.13,-4.17,5.77,-2.16,20.08,11.25,-0.94,128253
0.85,3.51,-18.60,-4.44,6.48,-1.75,12.60,9.15,6.08,128288
-2.20,4.89,-12.70,-3.68,6.19,-0.79,5.14,5.92,10.79,128322
0.42,10.34,-11.20,-2.22,4.95,-0.14,-0.91,3.67,12.28,128356
-6.25,1.91,-9.08,-1.56,3.26,0.60,-6.91,1.70,11.55,128390
-3.54,5.90,-8.32,-0.72,2.34,1.01,-9.89,1.89,11.39,128424
-6.55,6.19,-7.84,-0.65,1.84,0.05,-12.67,1.05,9.54,128458
-9.04,6.15,-5.78,-0.55,1.56,-0.36,-14.35,0.82,8.37,128493
-4.91,9.01,-3.50,-0.40,1.41,-0.33,-16.16,0.76,7.54,128527
-4.10,11.27,-2.97,-0.48,1.32,-0.02,-17.64,0.37,6.72,128561
-3.69,8.69,-5.80,-0.45,0.85,-0.11,-19.26,0.41,5.90,128595
-3.15,9.40,-8.79,-1.09,1.68,-1.04,-20.81,-0.25,4.91,128629
-6.81,0.45,-0.96,-2.13,3.12,-2.23,-23.81,-3.41,3.07,128664
-3.05,13.58,-0.04,-1.93,3.46,-2.19,-27.05,-5.67,0.44,128698
-5.16,14.66,-7.40,-3.53,4.40,-3.21,-31.25,-10.79,-3.60,128732
-10.21,-0.72,-11.04,-3.04,3.27,-2.71,-33.27,-14.75,-8.54,128766
-7.60,0.81,-8.65,-2.00,2.58,-1.67,-34.74,-18.11,-12.67,128800
-0.95,9.74,-5.71,-1.73,2.51,-1.13,-35.08,-20.04,-15.61,128834
4.93,12.98,-6.41,-2.38,3.86,-1.05,-35.82,-21.59,-20.51,128869
7.32,14.96,-9.34,-2.79,4.40,-0.75,-35.59,-22.13,-27.27,128903
13.50,14.40,-9.70,-0.83,3.96,1.17,-35.17,-21.38,-32.07,128937
-6.13,5.97,-6.45,-2.75,4.20,1.72,-34.10,-18.36,-38.22,128971
-15.81,3.73,-11.43,-1.61,3.77,1.67,-32.49,-16.24,-42.39,129005
-16.96,4.46,-10.65,-0.60,1.98,0.32,-31.48,-15.27,-44.65,129040
-8.18,7.57,-5.34,-0.71,1.83,-0.63,-29.39,-15.24,-46.89,129074
-2.25,10.34,-4.25,-1.02,1.74,-0.32,-28.00,-15.10,-48.36,129108
-5.46,9.21,-6.63,-1.06,1.49,-0.15,-26.94,-14.54,-49.50,129142
-3.36,7.37,-7.45,-1.08,1.16,-0.41,-26.32,-14.29,-51.21,129176
-3.88,7.31,-5.49,-1.24,1.67,-0.85,-24.73,-14.22,-53.04,129210
-3.66,9.30,0.11,-1.92,2.70,-1.78,-21.70,-13.58,-55.06,129245
0.96,13.64,-1.70,-2.12,3.26,-1.79,-18.37,-12.91,-56.45,129279
2.57,14.76,-7.12,-2.82,3.79,-1.61,-14.57,-10.86,-60.01,129313
3.80,12.07,-11.75,-3.37,4.43,-1.65,-8.74,-8.20,-60.90,129347
-0.86,7.51,-16.44,-4.30,6.04,-2.32,-2.09,-3.84,-61.97,129381
-4.78,3.23,-17.93,-4.21,6.75,-2.13,6.90,1.96,-58.77,129416
-5.22,6.92,-11.67,-3.39,5.72,-1.16,13.71,6.28,-54.28,129450
-2.30,11.00,-9.71,-1.73,4.59,-0.39,18.91,8.40,-48.80,129484
1.52,8.66,-7.56,-1.65,3.87,0.42,23.52,9.60,-44.62,129518
-4.85,9.39,-10.18,-1.80,4.71,0.46,27.27,9.95,-38.19,129552
-7.22,1.47,-12.39,-1.60,3.74,0.08,29.82,10.55,-29.99,129586
-7.59,0.07,-8.64,-0.69,2.00,0.41,30.96,9.91,-26.83,129621
-3.32,8.89,-6.24,0.01,1.11,0.78,31.72,8.67,-23.85,129655
-2.02,9.74,-2.78,-0.16,0.95,0.53,32.23,8.02,-22.07,129689
-4.10,5.67,-4.09,-0.47,0.92,0.49,31.86,7.34,-19.89,129723
-9.65,5.16,-8.21,-0.18,0.59,0.38,32.51,6.31,-18.82,129757
-8.11,8.92,-6.55,0.35,-0.09,0.15,33.03,6.43,-18.28,129791
-11.11,11.06,-0.24,-0.12,0.41,-0.72,32.20,6.39,-17.35,129826
-4.39,10.64,-0.67,-0.79,0.88,-1.91,30.59,8.42,-16.53,129860
0.05,8.75,-4.54,-0.87,1.08,-1.78,28.85,10.03,-14.43,129894
-1.72,7.16,-4.06,-0.85,1.43,-1.46,27.30,11.30,-12.39,129928
-2.16,10.98,-1.51,-1.39,1.95,-1.78,25.18,12.07,-9.05,129962
-3.75,7.44,-2.71,-1.91,2.50,-2.19,22.70,13.11,-5.25,129997
-6.75,3.46,-5.08,-1.61,2.47,-2.05,19.22,13.81,-2.70,130031
-6.93,6.62,-5.00,-1.33,2.09,-1.72,15.67,13.96,-0.18,130065
-8.13,7.63,-3.52,-1.29,1.89,-1.68,12.39,13.20,2.79,130099
0.19,10.89,-6.78,-1.86,2.35,-1.74,8.89,12.82,4.38,130133
-3.05,4.89,-9.97,-2.54,3.82,-1.25,5.13,9.98,11.08,130167
3.00,10.80,-6.49,-1.97,2.90,-0.25,0.57,8.62,9.69,130202
-6.03,10.13,-1.54,-0.95,2.41,0.50,-2.78,7.32,10.03,130236
-6.45,5.79,-4.53,-0.15,0.89,1.54,-3.20,7.12,9.44,130270
-11.65,3.20,-4.21,-0.20,0.34,0.89,-4.06,6.72,9.34,130304
-5.73,5.07,-2.96,-0.11,-0.16,0.36,-3.33,7.22,8.96,130338
-5.32,7.06,-1.44,-0.49,0.42,0.04,-3.99,6.85,9.15,130373
-2.95,10.66,-2.68,-0.79,1.14,-0.45,-5.41,6.24,9.84,130407
-2.29,7.71,-2.61,-1.18,1.81,-0.40,-8.30,5.26,9.62,130441
-2.05,8.88,-3.71,-1.23,1.97,0.12,-10.27,4.03,10.04,130475
8.03,16.05,-6.48,-1.30,3.36,0.07,-13.43,3.65,8.45,130509
1.72,8.69,-7.99,-2.63,4.33,-0.80,-18.61,0.89,6.93,130543
0.76,6.37,-5.53,-2.11,4.04,0.03,-22.86,-1.52,3.93,130578
-5.50,10.16,-5.38,-0.56,2.08,0.84,-25.34,-0.79,2.13,130612
-6.58,8.29,-6.32,-0.67,1.85,0.28,-26.94,0.28,0.61,130646
-13.92,5.42,-9.46,-0.21,1.23,0.13,-27.42,0.86,-0.72,130680
-12.38,6.63,-3.91,-0.31,1.08,-0.66,-28.71,0.51,-2.21,130714
-6.53,14.72,0.42,0.17,0.44,-1.58,-28.91,-0.41,-2.32,130749
-0.90,8.68,0.13,-0.70,0.78,-1.97,-31.00,-2.65,-3.43,130783
3.48,9.39,-0.30,-0.86,1.23,-1.03,-31.53,-3.84,-4.34,130817
3.62,14.26,0.37,-1.21,1.81,-0.93,-32.68,-5.17,-5.92,130851
3.34,15.73,-6.63,-2.52,3.27,-2.08,-35.05,-7.38,-9.37,130885
2.74,12.69,-13.05,-2.95,3.62,-2.53,-36.31,-10.23,-13.23,130919
4.74,10.63,-14.03,-3.69,4.19,-2.27,-37.01,-14.44,-18.74,130954
1.29,15.04,-13.81,-4.33,5.43,-1.72,-37.12,-16.27,-25.62,130988
6.27,9.58,-17.26,-6.03,6.89,-2.27,-35.78,-17.49,-34.51,131022
-2.33,2.16,-16.70,-4.56,7.27,-0.83,-30.84,-16.37,-44.40,131056
12.61,12.81,-11.22,-2.81,5.73,0.72,-26.44,-14.31,-50.19,131090
-7.49,2.23,-13.46,-2.93,5.28,0.18,-20.77,-13.11,-54.06,131125
7.17,1.80,-10.14,-1.56,3.36,1.35,-15.45,-11.21,-57.07,131159
-14.38,2.69,-11.49,-1.46,4.18,0.56,-10.42,-9.98,-58.89,131193
-12.44,7.14,-8.32,-0.42,2.48,-0.10,-5.63,-9.35,-60.07,131227
-3.34,8.32,0.20,-0.59,1.95,-0.26,-2.94,-9.31,-60.26,131261
-4.20,10.93,-7.76,-0.81,2.38,0.03,0.22,-8.81,-60.39,131295
-9.26,2.85,-8.23,-0.51,1.23,-0.08,3.52,-8.56,-60.01,131330
-6.24,8.90,-4.53,0.08,0.32,0.03,4.34,-8.33,-60.26,131364
-3.72,9.50,-3.70,-0.13,0.64,-0.28,5.31,-8.48,-60.32,131398
-5.74,8.80,-2.27,-0.83,1.68,-1.22,7.15,-7.63,-60.22,131432
-3.82,7.88,-3.07,-1.11,1.93,-1.40,9.94,-5.77,-59.81,131466
-2.78,6.96,-5.08,-0.99,1.80,-1.12,11.96,-4.03,-58.39,131500
-2.31,7.23,-4.83,-0.71,1.42,-0.65,13.53,-3.00,-58.10,131535
1.56,8.43,-3.23,-0.21,0.55,0.44,14.66,-2.34,-57.69,131569
-0.25,12.27,-2.17,-0.50,1.30,-0.04,16.47,-2.31,-56.93,131603
-2.94,8.99,-1.96,-1.20,1.94,-0.81,18.40,-1.01,-55.13,131637
-2.65,9.86,-3.87,-1.45,2.58,-1.23,21.78,1.56,-51.36,131671
-6.31,10.29,-6.69,-1.75,2.63,-1.85,24.01,4.22,-48.38,131706
-2.75,7.92,-6.70,-2.01,2.63,-1.67,25.46,7.83,-43.70,131740
-2.25,10.33,-7.04,-2.09,3.03,-1.63,27.20,10.00,-39.21,131774
-0.67,11.45,-11.17,-3.20,4.37,-2.52,27.55,13.17,-32.84,131808
2.31,1.12,-12.03,-3.88,5.09,-2.33,26.50,16.41,-22.71,131842
-0.34,8.13,-6.72,-3.03,5.48,-1.21,24.06,16.79,-14.00,131876
3.34,4.65,4.57,-1.48,3.62,0.12,21.86,15.87,-8.45,131911
3.80,16.81,-5.87,-1.09,3.56,1.38,21.10,14.50,-5.20,131945
-9.88,8.47,-6.47,-1.77,3.53,0.82,19.35,12.64,-1.46,131979
-11.04,4.64,-12.31,-1.11,3.12,0.22,16.11,11.39,2.98,132013
-10.12,7.44,-8.76,-0.61,2.17,0.02,13.88,10.26,4.41,132047
-9.09,10.58,-4.23,-0.73,1.74,-0.60,12.01,10.06,5.44,132082
-8.56,7.46,-2.42,-0.60,1.19,-0.26,9.82,9.70,6.18,132116
-2.52,4.75,-2.53,-0.02,0.18,0.84,9.50,9.02,6.66,132150
6.36,5.71,-6.21,0.14,-0.30,1.22,10.25,8.65,5.99,132184
-3.96,9.40,-5.44,-0.41,1.37,-0.24,9.21,8.54,6.93,132218
0.15,8.76,-4.01,-1.61,3.31,-1.48,5.00,7.16,8.70,132252
1.37,14.47,-5.87,-2.53,4.74,-2.49,-1.46,5.09,9.54,132287
3.57,9.54,-7.44,-2.62,4.07,-2.18,-8.04,2.70,10.03,132321
2.73,9.85,-8.60,-2.15,3.03,-1.16,-12.83,-0.38,8.93,132355
0.28,7.00,-9.25,-2.98,4.29,-1.62,-17.22,-2.78,8.52,132389
1.60,6.20,-5.43,-3.16,4.72,-1.63,-22.33,-6.68,5.09,132423
-0.91,10.99,-11.41,-4.37,5.79,-2.72,-27.74,-11.06,-0.51,132458
-6.35,6.11,-14.78,-4.23,4.97,-2.70,-31.12,-15.71,-6.28,132492
-13.87,2.66,-13.47,-3.64,4.22,-2.65,-32.97,-19.51,-12.38,132526
-9.71,-2.10,-8.12,-2.40,2.62,-1.16,-33.59,-21.73,-16.53,132560
3.32,13.02,-8.62,-0.91,1.46,0.32,-34.20,-21.53,-18.05,132594
14.37,19.03,-8.13,-2.72,3.35,0.62,-34.90,-21.05,-23.22,132628
8.40,16.16,-8.81,-3.44,4.83,-0.48,-34.93,-21.18,-29.99,132663
3.47,10.18,-8.81,-3.93,5.55,-0.23,-33.35,-19.85,-38.15,132697
-4.19,5.88,-13.60,-4.54,6.68,0.56,-30.87,-17.42,-46.02,132731
1.87,11.23,-16.48,-3.89,6.19,0.80,-25.80,-14.40,-55.61,132765
-16.17,0.25,-15.87,-3.82,5.19,0.86,-19.85,-10.33,-56.50,132799
-13.29,-0.31,-12.20,-1.12,1.61,1.24,-17.09,-8.80,-58.07,132833
-8.01,39.16,-10.77,1.94,-0.35,0.26,-16.18,-9.50,-57.61,132868
-7.07,13.60,-12.75,-1.68,-0.47,-2.83,-17.20,-9.24,-58.54,132902
0.94,-5.99,-2.38,-3.30,2.74,-1.73,-14.79,-7.31,-59.75,132936
-3.68,5.76,-0.20,-2.91,3.34,-0.13,-10.06,-3.62,-60.46,132970
-5.39,13.95,-3.47,-1.05,2.28,1.04,-6.40,-1.96,-61.15,133004
-6.15,15.35,-3.10,0.05,1.49,1.09,-3.67,-1.32,-61.60,133039
-5.37,6.11,-0.51,-1.19,2.42,0.48,0.15,-0.25,-61.15,133073
-5.18,5.06,-0.94,-2.32,3.56,-0.18,4.82,2.09,-60.38,133107
-5.43,8.58,-5.52,-3.09,4.17,-1.16,11.01,6.42,-57.13,133141
-7.12,7.31,-7.12,-2.76,3.46,-1.47,14.70,9.51,-52.84,133175
-9.42,7.52,-4.70,-1.87,2.14,-1.33,17.19,13.34,-48.89,133209
-9.70,7.41,-1.50,-1.66,1.57,-1.24,17.95,15.70,-46.36,133244
-11.79,11.99,-1.24,-1.24,1.05,-1.64,18.52,17.87,-43.76,133278
-11.92,16.20,-6.99,-0.50,0.69,-2.93,17.07,20.01,-42.14,133312
2.37,6.39,-4.51,-0.92,-0.40,-3.08,14.51,21.56,-40.57,133346
-0.96,38.95,-8.45,0.63,-0.32,-3.19,11.90,23.02,-39.02,133380
-10.96,13.00,-11.10,-2.39,2.32,-1.97,11.65,24.95,-33.75,133415
1.61,6.05,-9.66,-4.19,2.22,-0.51,11.37,24.70,-27.27,133449
-3.07,-1.36,-7.47,-4.27,2.28,1.82,13.62,23.68,-19.91,133483
-0.90,-7.08,-3.74,-3.42,2.31,3.52,16.97,20.90,-15.45,133517
-2.98,-4.71,-1.68,-3.21,4.04,3.87,19.57,16.53,-7.80,133551
-7.62,0.43,-6.24,-2.69,5.10,2.89,19.06,13.40,-1.56,133585
-20.38,-4.26,-36.11,-2.70,5.49,2.37,15.71,10.06,4.14,133620
-4.18,10.96,-5.23,-3.30,2.01,0.18,14.40,8.93,5.22,133654
-7.57,2.39,0.28,-0.80,0.73,-0.66,11.56,8.59,6.56,133688
-5.83,11.89,-1.02,-0.50,0.94,-0.75,10.33,8.71,7.94,133722
-4.63,10.97,-3.58,-1.63,1.33,-1.34,7.94,8.04,8.93,133756
-4.46,6.73,-2.26,-2.02,1.13,-1.67,5.92,6.93,10.36,133791
-4.51,11.03,-5.15,-1.64,1.14,-1.83,3.05,5.29,11.15,133825
-5.02,3.66,-11.09,-2.65,1.94,-1.78,-0.54,3.55,12.42,133859
-8.79,2.96,-9.64,-2.20,1.58,-0.91,-7.10,0.66,13.59,133893
-3.27,9.87,-5.83,-1.54,0.81,0.03,-5.60,-1.67,13.34,133927
-4.54,6.65,-4.69,-1.12,2.55,0.32,-7.82,-3.16,13.04,133961
-19.47,5.71,2.79,-0.16,2.47,1.04,-10.95,-3.17,11.81,133996
0.29,1.73,4.02,-0.22,-0.04,2.23,-10.36,-2.18,11.46,134030
-17.06,0.08,0.51,-0.73,1.40,1.31,-12.07,-2.56,10.35,134064
-12.72,6.85,-1.57,-0.02,1.06,0.96,-13.17,-1.91,9.69,134098
-5.59,4.67,-0.18,-0.24,0.95,0.44,-14.03,-1.61,9.09,134132
-8.46,11.78,-4.21,-0.86,1.78,-0.59,-16.28,-2.82,8.30,134166
-6.72,6.10,-3.22,-1.48,1.83,-1.10,-18.36,-4.44,7.29,134201
-5.39,3.87,-2.85,-0.69,1.09,-0.81,-20.32,-5.55,6.74,134235
-0.40,14.31,-2.56,-0.17,0.85,-0.17,-21.10,-6.80,5.32,134269
1.97,12.69,-1.60,-1.15,1.74,-0.04,-23.02,-7.89,4.60,134303
1.79,12.82,-2.21,-1.53,2.59,0.25,-26.24,-8.58,2.35,134337
1.00,10.87,-4.13,-1.53,2.58,0.32,-28.14,-8.32,-0.12,134372
-2.90,7.35,-8.32,-1.40,2.13,0.36,-29.87,-8.36,-2.50,134406
-5.49,3.51,-5.94,-0.92,1.04,0.31,-31.20,-7.91,-4.28,134440
-8.71,6.45,-3.32,-0.44,1.00,0.15,-32.07,-7.67,-5.10,134474
-10.43,10.74,-2.96,-1.51,2.58,-2.01,-33.44,-9.35,-8.04,134508
-8.56,3.52,-8.02,-1.59,2.22,-2.68,-34.73,-12.64,-11.18,134542
-3.93,6.25,-8.65,-0.75,1.26,-1.72,-34.65,-15.54,-12.88,134577
-0.82,10.70,-6.14,-0.70,1.02,-0.99,-35.40,-16.30,-14.97,134611
-0.20,10.71,0.01,-1.17,1.37,-0.65,-36.04,-17.51,-16.52,134645
1.83,9.81,1.34,-1.85,2.51,-0.11,-36.41,-18.05,-19.66,134679
-2.13,12.83,-2.73,-1.72,3.33,0.38,-36.83,-16.65,-24.50,134713
-3.02,7.89,-5.15,-1.90,3.02,0.35,-36.89,-16.50,-27.95,134748
-9.38,0.81,-10.27,-1.08,1.55,0.43,-35.98,-15.23,-29.47,134782
-12.79,7.65,-5.81,-0.13,0.59,-0.27,-35.85,-15.04,-31.23,134816
-11.57,7.04,-3.59,-0.49,0.77,-1.07,-35.41,-16.00,-31.48,134850
-7.05,7.46,-1.61,-0.48,0.76,-1.04,-35.50,-17.44,-32.86,134884
-5.02,10.35,-4.05,-0.88,1.38,-1.28,-34.58,-18.25,-33.72,134918
-3.65,11.61,-6.26,-1.90,2.70,-2.07,-33.46,-20.23,-37.97,134953
-1.76,6.37,-10.70,-3.68,4.76,-3.02,-30.05,-20.72,-43.07,134987
2.84,5.08,-5.76,-3.13,4.24,-2.10,-26.31,-21.37,-48.54,135021
0.78,7.95,-1.98,-1.36,3.00,-0.13,-22.32,-20.07,-51.56,135055
1.43,8.57,-7.19,1.33,0.56,1.65,-21.40,-19.89,-52.86,135089
-4.82,6.66,-1.56,1.05,-0.82,2.56,-21.91,-19.79,-52.31,135124
-9.28,13.85,0.36,0.89,-0.59,1.75,-23.52,-19.56,-52.48,135158
-5.52,10.13,-2.37,-0.10,0.02,0.92,-24.10,-18.93,-51.59,135192
-5.80,9.81,-6.17,-0.48,0.69,0.16,-23.72,-17.98,-51.77,135226
-7.72,5.96,-8.17,-1.39,2.06,-0.90,-21.88,-17.52,-54.25,135260
-6.08,6.57,-6.25,-1.06,1.62,-0.87,-19.89,-16.90,-55.96,135294
-4.33,8.49,-4.04,-0.41,0.68,-0.36,-18.58,-16.91,-56.69,135329
-3.34,11.41,-2.58,-0.79,1.08,-0.86,-18.23,-16.57,-56.65,135363
-4.02,8.48,-4.12,-1.18,1.39,-1.57,-15.83,-16.15,-57.44,135397
-1.60,5.60,-4.00,-1.04,1.43,-1.13,-13.61,-15.20,-59.22,135431
2.33,13.05,-2.33,-1.33,1.94,-0.85,-11.18,-14.38,-60.36,135465
-0.08,13.33,-4.57,-1.87,2.59,-1.19,-8.75,-12.80,-61.88,135500
-1.54,8.31,-8.44,-2.32,2.96,-1.42,-4.95,-10.48,-62.54,135534
-1.14,6.97,-7.65,-2.55,3.57,-1.32,-0.58,-7.44,-62.76,135568
-1.99,8.42,-5.54,-2.91,4.22,-1.20,4.62,-4.38,-61.34,135602
-6.56,7.93,-9.71,-3.21,4.83,-1.98,11.56,0.79,-58.71,135636
-5.77,4.91,-13.10,-3.18,4.78,-2.32,16.19,5.41,-54.44,135670
-11.84,-1.73,-7.21,-2.34,3.87,-1.00,19.72,9.09,-50.01,135705
0.38,17.56,-6.29,-0.63,3.02,0.21,23.08,9.88,-46.30,135739
-7.62,5.23,-0.71,-1.73,2.93,-0.28,25.56,11.44,-41.73,135773
-3.24,6.52,-4.81,-0.35,1.39,0.83,28.06,10.83,-38.98,135807
-3.13,6.72,-4.29,-0.05,0.88,1.07,30.34,9.94,-36.79,135841
-9.32,5.26,-6.61,0.59,-0.16,1.30,31.54,8.43,-36.73,135875
-8.90,9.00,-4.70,0.95,-0.78,0.76,32.34,6.81,-37.27,135910
-8.30,8.26,-2.51,0.89,-0.85,0.06,32.26,6.36,-38.78,135944
-5.86,11.53,-1.27,0.89,-1.37,0.05,31.45,5.10,-40.15,135978
-1.40,11.23,0.24,0.36,-1.16,0.25,31.19,4.87,-40.72,136012
-1.95,11.14,-1.73,-0.46,0.04,-0.08,31.45,4.69,-39.92,136046
-4.08,8.92,-6.94,-1.47,1.90,-0.88,32.59,6.14,-35.91,136081
-7.78,6.18,-6.01,-2.23,3.11,-1.93,32.99,8.42,-30.81,136115
-5.61,9.07,-6.14,-2.17,3.05,-2.70,32.27,11.24,-23.40,136149
-3.32,6.14,-4.92,-2.27,2.69,-2.69,29.28,14.35,-18.81,136183
-4.17,7.71,-3.18,-2.17,2.56,-1.81,27.01,15.14,-14.47,136217
-4.55,10.18,-2.67,-2.41,2.89,-1.60,24.35,15.38,-9.27,136251
-2.93,9.04,-5.09,-2.70,3.34,-1.31,21.34,15.35,-3.71,136286
2.79,9.50,-7.05,-2.85,3.79,-1.04,17.89,14.31,0.57,136320
3.98,9.50,-7.20,-2.59,4.17,-0.21,13.36,11.85,4.69,136354
5.64,14.96,-7.35,-1.74,3.94,0.43,10.03,10.03,8.18,136388
-5.71,5.98,-7.20,-1.46,3.06,0.90,5.86,8.02,9.47,136422
-9.10,3.56,-7.70,-0.42,1.41,1.55,5.29,7.56,10.04,136457
-15.76,2.26,-4.67,0.23,0.19,0.41,5.23,7.42,9.79,136491
-15.09,4.51,-4.10,0.81,-0.66,-0.19,5.57,8.64,8.93,136525
-8.44,14.09,-0.71,0.24,0.04,-1.49,4.52,9.44,8.99,136559
-8.11,8.53,-5.13,-0.99,1.14,-2.77,2.02,9.02,9.70,136593
-7.52,4.37,-7.18,-1.18,1.05,-2.31,-0.85,7.91,10.51,136627
1.02,9.35,-7.02,-0.58,0.12,-1.12,-2.50,6.93,10.07,136662
3.63,7.60,-2.89,-1.03,1.05,-0.37,-3.92,5.63,9.92,136696
10.29,16.38,3.32,-0.54,1.70,0.86,-5.60,5.29,10.55,136730
-0.94,12.47,-0.46,-1.65,2.61,0.66,-8.26,4.37,9.57,136764
-8.47,6.59,-7.65,-1.81,2.55,0.46,-10.82,3.29,9.69,136798
-10.00,3.54,-11.72,-0.55,0.94,0.63,-12.83,2.73,9.65,136833
-11.40,7.14,-6.30,-0.11,0.12,-0.12,-13.33,2.73,8.37,136867
-4.26,8.43,-1.06,-0.43,0.38,-0.91,-13.86,2.69,8.32,136901
0.73,10.96,-0.15,-1.48,1.82,-1.40,-16.47,0.38,7.86,136935
-2.21,11.70,-5.62,-1.92,2.50,-1.45,-19.35,-1.75,6.15,136969
-1.29,11.69,-8.18,-2.32,2.95,-1.38,-22.39,-4.36,4.62,137003
-1.99,8.19,-9.68,-2.61,3.06,-1.35,-26.13,-6.53,2.73,137038
-2.83,10.56,-9.01,-2.89,3.87,-1.81,-28.81,-9.30,-0.88,137072
-2.47,4.55,-8.63,-3.72,4.49,-2.46,-31.61,-14.75,-6.39,137106
-3.19,4.53,-6.76,-2.78,4.49,-1.17,-34.24,-16.56,-11.60,137140
4.23,11.18,-4.98,-1.91,4.06,-0.07,-36.13,-17.20,-17.74,137174
7.14,16.00,-6.40,-0.92,3.32,0.72,-37.08,-15.92,-22.27,137208
-2.30,7.03,-7.02,-1.22,2.50,1.50,-37.40,-13.64,-25.91,137243
-13.94,3.54,-9.70,-0.72,1.84,1.27,-37.18,-12.15,-28.12,137277
-16.28,3.94,-7.03,-0.06,0.87,0.34,-36.64,-11.33,-29.44,137311
-11.32,9.26,-1.86,-0.05,0.58,-0.86,-36.55,-11.25,-30.37,137345
-10.23,10.54,-3.50,-0.85,1.37,-2.08,-35.98,-14.10,-32.17,137379
-8.45,2.56,-5.30,-0.76,0.65,-1.70,-34.89,-15.70,-33.31,137414
-7.39,3.67,-5.59,-0.33,0.49,-1.04,-35.30,-17.11,-33.43,137448
-3.32,10.01,-4.73,-0.26,0.53,-0.61,-34.84,-17.70,-33.91,137482
4.11,8.70,-5.02,-1.40,1.48,-0.46,-33.67,-17.95,-36.10,137516
9.73,11.36,0.89,-1.08,2.49,-0.00,-33.03,-17.60,-39.43,137550
-3.27,12.58,5.65,-1.75,3.31,0.07,-31.00,-17.52,-43.85,137584
-3.54,8.71,-6.49,-0.92,2.21,0.59,-29.36,-16.47,-45.70,137619
-8.88,6.88,-8.79,-1.18,1.92,0.31,-27.64,-15.40,-48.13,137653
-10.58,7.26,-9.08,-0.37,0.54,0.29,-27.59,-14.97,-48.96,137687
-8.62,9.15,-5.67,0.11,0.11,0.37,-27.78,-14.86,-49.02,137721
-5.85,11.18,-2.19,-0.73,0.74,-0.47,-26.81,-14.53,-49.91,137755
-10.72,4.54,-3.10,-1.08,0.73,-1.57,-26.06,-15.00,-51.01,137790
-3.15,3.68,-2.43,-0.21,-0.45,-0.69,-26.06,-15.71,-50.75,137824
0.79,9.25,0.53,-0.57,0.67,-0.30,-26.03,-15.64,-51.27,137858
6.45,17.36,-0.41,-2.07,2.63,-0.84,-24.28,-15.19,-53.29,137892
2.21,14.29,-7.51,-2.82,3.66,-1.39,-19.92,-13.14,-56.93,137926
5.08,16.09,-21.28,-3.42,4.61,-1.97,-15.89,-11.39,-59.35,137960
-2.94,0.98,-18.40,-5.49,6.79,-2.34,-6.91,-5.42,-60.82,137995
-1.16,6.67,-11.46,-4.21,7.11,-0.75,1.43,-0.79,-60.32,138029
-4.15,12.39,-8.79,-2.99,6.30,-0.85,9.24,2.73,-57.47,138063
1.45,5.30,-10.50,-2.30,4.66,0.01,16.14,5.76,-52.78,138097
-4.94,4.91,-10.11,-1.67,4.25,1.07,22.03,6.56,-48.57,138131
-9.87,6.72,-11.35,-1.03,3.56,0.29,26.78,7.00,-44.40,138166
-10.70,3.65,-10.44,-0.61,2.36,0.20,29.20,7.85,-40.88,138200
-12.60,1.85,-7.84,-0.07,1.17,0.03,31.23,7.66,-37.64,138234
-10.19,8.02,-6.45,0.92,-0.92,0.52,31.47,6.65,-38.88,138268
-8.04,9.83,-8.09,1.68,-3.01,0.55,30.77,5.55,-42.30,138302
-7.19,5.29,-0.50,1.21,-1.96,-0.45,29.10,4.62,-45.24,138336
-4.09,12.00,3.10,0.05,-0.01,-1.17,28.85,4.94,-44.84,138371
-4.62,7.73,-0.06,-1.39,1.57,-2.22,28.21,8.43,-43.06,138405
-2.28,9.29,-4.67,-0.90,1.29,-1.46,28.69,10.70,-39.43,138439
-1.87,9.99,-5.72,-1.08,1.33,-1.31,28.52,12.66,-37.11,138473
-3.39,7.16,-6.11,-1.67,1.84,-1.61,27.96,14.70,-33.10,138507
-2.31,7.80,-5.70,-2.04,2.32,-1.58,27.46,16.47,-28.75,138541
-3.48,7.19,-4.86,-2.36,2.82,-1.32,26.51,17.95,-23.57,138576
2.75,9.19,-1.60,-1.97,3.23,-0.42,25.74,17.96,-17.14,138610
2.70,16.60,-7.16,-1.47,3.45,-0.14,24.79,17.57,-12.39,138644
-1.53,6.90,-5.62,-2.01,2.74,0.16,23.03,15.84,-6.81,138678
-3.73,5.14,-7.08,-0.87,1.65,1.59,22.99,13.91,-4.66,138712
-9.97,7.24,-2.38,-0.68,1.23,1.33,22.76,12.48,-3.93,138747
-5.80,5.35,-2.38,-0.09,-0.47,0.77,23.34,10.68,-2.95,138781
-0.99,8.88,-0.29,0.29,-0.25,1.17,24.50,9.97,-3.57,138815
-2.36,12.90,-1.67,-0.41,0.94,0.55,24.48,9.15,-1.99,138849
-4.83,11.53,-3.79,-1.83,2.80,-1.06,21.86,8.48,0.58,138883
-4.81,12.27,-13.86,-2.27,4.33,-3.00,17.61,8.45,4.12,138917
-8.34,2.60,-12.72,-3.02,4.28,-3.72,10.17,7.13,8.30,138952
-5.50,5.44,-5.96,-1.93,2.55,-2.54,5.06,6.33,10.16,138986
-4.20,8.11,-1.75,-1.68,2.30,-1.66,1.64,4.76,7.82,139020
-3.22,9.16,-2.06,-2.22,3.01,-1.24,-3.73,2.21,11.37,139054
-2.01,16.44,-3.46,-2.56,3.68,-0.61,-7.97,-0.83,11.94,139088
-7.01,10.94,-9.86,-3.38,4.25,-1.22,-14.02,-4.88,10.04,139123
-5.92,3.27,-13.71,-2.75,3.91,-0.84,-18.34,-7.85,8.36,139157
-1.50,8.00,-7.76,-2.04,3.44,-0.31,-22.36,-9.73,5.86,139191
1.87,10.79,-4.04,-2.25,3.61,-0.48,-26.25,-11.52,2.69,139225
-5.46,7.37,-5.94,-2.70,4.49,-0.99,-29.38,-13.29,-2.72,139259
-4.67,3.96,-7.66,-2.49,4.27,-0.87,-32.49,-15.61,-7.07,139293
-9.82,7.38,-9.91,-1.76,3.66,-0.67,-34.62,-16.19,-12.42,139328
-0.89,6.82,-11.01,-1.84,3.33,-0.83,-35.68,-17.13,-16.54,139362
-1.00,9.11,-7.89,-1.89,3.95,-0.56,-36.39,-18.30,-21.94,139396
-7.29,9.17,-7.36,-2.65,5.14,-1.11,-36.19,-18.20,-29.01,139430
-9.63,2.68,-6.81,-2.16,4.04,-0.70,-34.73,-18.61,-35.43,139464
-11.81,4.26,-7.19,-1.27,2.86,-0.30,-33.05,-18.01,-38.91,139499
-12.65,1.76,-7.84,-0.49,1.22,-0.48,-32.48,-18.42,-40.38,139533
-10.79,2.60,-6.01,0.75,-0.88,0.23,-32.18,-18.65,-39.86,139567
-3.59,6.28,-5.04,1.57,-2.32,1.12,-33.25,-18.02,-37.49,139601
-3.42,9.21,-1.64,0.69,-1.26,0.38,-34.57,-18.11,-36.19,139635
-7.10,9.10,-2.59,0.42,-0.70,-0.28,-34.76,-18.08,-35.34,139669
-11.63,4.76,-2.54,0.63,-1.24,-0.15,-35.46,-18.84,-34.39,139704
-12.43,2.74,-2.95,1.04,-1.74,-0.04,-35.40,-18.42,-31.31,139738
-5.62,13.62,-8.13,1.36,-1.35,-0.30,-35.28,-19.70,-30.06,139772
-9.86,5.86,-2.34,-4.67,2.11,-4.52,-34.00,-22.29,-32.43,139806
8.83,28.92,-24.46,3.46,1.73,-4.17,-31.92,-27.59,-32.99,139840
-1.54,1.74,-11.51,-4.90,7.40,-4.01,-27.55,-30.24,-40.19,139875
7.10,1.14,-0.40,-3.03,2.49,-0.25,-24.60,-30.31,-44.72,139909
-39.20,39.02,22.34,0.45,5.91,2.21,-22.16,-30.28,-46.73,139943
39.16,-39.20,24.86,-0.18,-2.58,9.63,-27.89,-25.11,-43.92,139977
-39.20,39.16,-39.16,24.92,6.45,9.96,-29.07,-26.13,-39.21,140011
37.97,-39.20,39.20,-38.55,0.06,-4.11,-30.09,-16.31,-47.02,140045
-10.15,34.87,-3.69,3.78,-0.95,2.02,-31.22,-20.18,-43.86,140080
-12.39,13.11,-3.35,1.59,-0.05,-0.17,-31.19,-19.09,-44.21,140114
-1.78,-2.37,-3.49,1.31,-0.74,1.02,-31.50,-19.03,-43.55,140148
0.97,9.63,-6.38,-0.12,-0.23,0.91,-32.94,-17.77,-42.68,140182
-5.21,6.51,-11.20,0.22,0.84,1.20,-32.56,-15.96,-43.19,140216
-9.36,-0.10,-11.03,-0.61,1.54,0.44,-31.96,-14.75,-44.11,140250
-5.76,8.46,-5.00,0.44,-0.37,-0.92,-31.26,-15.55,-45.41,140285
2.70,8.38,-4.42,-0.15,0.56,-1.01,-30.96,-16.98,-45.86,140319
0.52,8.98,-0.64,0.20,0.66,-0.31,-30.12,-17.73,-47.03,140353
-1.68,9.15,-2.64,0.30,0.58,-0.22,-29.38,-17.74,-47.50,140387
-5.08,7.02,-4.16,0.59,0.55,0.12,-29.03,-17.98,-48.10,140421
-3.01,6.64,-8.01,0.77,0.27,-0.25,-28.40,-18.58,-48.25,140456
0.85,7.79,-7.64,0.77,0.18,-0.26,-28.15,-19.69,-47.69,140490
3.18,8.85,-7.38,0.72,0.02,-0.29,-27.77,-20.59,-47.73,140524
12.31,16.06,-4.67,0.46,0.84,-0.93,-27.54,-21.34,-49.36,140558
15.72,21.17,-1.66,-0.60,1.62,-2.01,-25.53,-22.46,-50.12,140592
7.41,3.52,-12.65,-2.16,4.08,-2.58,-21.34,-22.71,-53.74,140626
-3.84,10.50,-0.97,-4.19,4.68,-1.53,-17.82,-20.48,-57.35,140661
-33.42,1.62,-15.60,-1.76,5.87,0.09,-11.44,-17.60,-60.29,140695
-4.05,5.85,-1.74,-3.52,-2.76,-0.13,-11.08,-13.42,-60.89,140729
-7.55,7.27,-6.12,-3.64,-0.70,-1.47,-13.59,-9.38,-60.30,140763
-10.39,9.03,2.13,-4.16,1.33,-2.21,-12.53,-4.75,-59.89,140797
-4.10,2.09,-2.37,-2.74,2.70,-2.68,-10.84,-1.08,-60.00,140832
8.89,-0.01,-1.55,-2.58,4.63,-2.76,-7.95,0.86,-59.73,140866
12.09,25.73,-24.58,3.16,0.36,2.45,-5.54,-1.40,-60.22,140900
19.95,11.47,13.34,0.19,-1.39,0.48,-5.39,0.10,-59.79,140934
0.67,9.67,2.55,-0.09,2.96,-0.11,-2.48,-0.34,-60.36,140968
-2.29,10.36,-4.06,-0.04,2.31,0.53,0.76,-0.31,-59.94,141002
-3.40,9.22,1.18,0.14,0.36,0.67,2.50,-0.91,-59.98,141037
0.26,8.08,-2.56,-0.33,1.62,-0.55,4.95,0.06,-59.68,141071
-9.12,10.38,-11.81,-0.21,0.35,-1.41,5.36,0.57,-59.18,141105
-3.04,8.96,-5.12,-0.53,-0.46,-1.35,3.99,1.56,-59.70,141139
-8.34,16.98,-2.20,-0.52,1.06,-1.37,4.14,2.28,-59.31,141173
-6.76,11.64,-1.54,-0.78,0.09,-1.48,4.33,3.16,-58.23,141208
-1.43,6.98,1.62,-1.24,-0.92,-1.97,2.29,5.51,-57.63,141242
-6.69,6.10,-4.94,0.21,0.58,-2.53,1.24,6.28,-57.67,141276
1.84,5.89,0.18,0.73,-0.18,-2.28,0.16,5.31,-57.82,141310
0.43,7.05,-0.20,1.31,-0.57,-1.72,-1.67,4.65,-58.39,141344
1.23,7.15,1.88,1.39,-0.23,-1.03,-2.28,2.94,-59.34,141378
-0.57,7.51,0.54,1.56,0.87,-0.36,-1.90,0.75,-59.68,141413
-3.07,9.23,-1.23,1.60,1.11,0.21,0.41,-1.17,-60.17,141447
-4.37,9.27,-0.82,1.41,0.27,0.52,1.21,-2.86,-60.19,141481
-6.12,7.76,-0.08,1.14,-0.86,0.85,1.42,-4.18,-60.55,141515
-6.05,7.43,-0.74,1.22,-1.36,0.99,0.28,-5.07,-60.55,141549
-3.12,7.84,0.27,1.24,-2.57,1.21,-2.21,-6.49,-60.65,141583
0.82,12.92,-1.54,1.23,-2.62,1.50,-4.76,-8.56,-60.99,141618
-2.45,12.00,-5.89,1.51,-1.99,0.71,-6.47,-9.57,-59.89,141652
-3.43,8.15,3.97,0.37,-1.43,0.85,-9.06,-9.47,-60.46,141686
-0.56,10.83,4.72,-0.04,-0.07,0.62,-9.34,-9.51,-60.60,141720
-5.00,8.57,-0.10,-1.25,2.04,0.41,-6.40,-8.48,-61.06,141754
-4.37,12.94,-6.00,-1.80,2.80,0.31,-2.78,-6.33,-61.30,141789
-3.03,7.58,-6.12,-2.21,3.12,0.06,1.18,-3.76,-60.95,141823
-1.59,9.95,-2.99,-1.97,3.28,-0.02,5.79,-1.43,-60.51,141857
-5.03,9.03,-1.44,-2.25,3.88,-0.89,9.92,1.20,-56.96,141891
-2.00,9.54,-2.06,-2.03,3.76,-1.22,13.72,4.47,-54.00,141925
-2.14,9.82,-4.36,-1.90,3.49,-1.20,18.01,6.90,-51.96,141959
-2.22,8.78,-4.02,-1.57,3.13,-0.92,20.62,9.16,-47.88,141994
-0.71,8.38,-2.60,-1.13,2.40,-0.36,22.54,10.42,-45.31,142028
-5.93,11.29,-4.20,-0.72,2.35,0.13,25.01,11.08,-41.92,142062
-1.34,8.41,-1.80,-0.48,1.78,0.38,26.48,10.41,-39.61,142096
2.00,10.50,0.99,-0.18,1.43,1.27,28.94,9.43,-36.66,142130
0.43,12.79,-2.16,-0.58,2.31,0.77,31.03,7.72,-34.29,142165
-4.24,6.89,-4.51,-0.76,2.20,0.43,32.81,7.42,-29.68,142199
-5.86,6.38,-8.96,-0.39,1.59,0.72,33.75,6.66,-26.82,142233
-6.23,12.77,-3.74,-0.58,2.10,-0.22,34.36,5.76,-22.17,142267
-0.62,10.13,-7.38,-0.98,2.01,-1.11,33.46,6.62,-19.50,142301
0.15,7.61,-2.19,-0.34,1.19,0.14,32.94,6.43,-16.31,142335
2.09,12.28,0.64,-0.56,1.70,0.37,32.43,4.82,-13.62,142370
-3.21,11.61,-2.86,-1.10,2.69,-0.18,31.72,4.14,-9.63,142404
-6.08,5.93,-8.83,-1.61,3.88,-1.16,29.06,4.46,-4.87,142438
-6.95,8.17,-9.39,-1.67,4.14,-1.57,24.45,4.63,0.88,142472
-9.55,8.74,-7.67,-1.61,3.66,-2.20,20.42,4.69,4.15,142506
-8.60,6.71,-6.01,-0.77,1.96,-1.83,16.12,5.51,6.43,142541
-7.12,4.96,-2.47,-0.42,1.09,-1.15,13.86,5.48,7.51,142575
-2.85,10.10,0.28,-0.49,1.03,-0.48,12.67,5.52,7.92,142609
1.15,8.66,-0.35,-0.92,1.52,-0.33,10.74,5.50,9.34,142643
1.46,8.14,-2.16,-0.61,2.37,0.46,8.29,4.52,10.45,142677
6.89,8.17,-0.03,-0.16,1.40,1.26,6.68,3.81,10.73,142711
3.25,11.84,-1.97,-0.78,2.32,1.73,3.83,3.19,11.85,142746
-4.23,5.45,-2.29,-0.81,1.81,1.49,1.93,2.66,12.26,142780
-6.48,9.51,-3.32,-0.59,1.53,0.47,-0.64,2.27,11.62,142814
-6.50,13.52,-3.69,-1.18,2.84,-0.63,-3.41,0.67,11.97,142848
-3.07,12.49,-7.16,-1.70,3.32,-1.98,-8.59,-1.83,11.06,142882
-0.61,9.90,-8.59,-1.43,2.58,-1.55,-12.34,-3.08,10.07,142916
1.06,10.27,-6.04,-1.29,2.58,-0.77,-15.14,-4.87,9.27,142951
-0.31,14.82,-5.43,-1.78,3.64,-0.25,-19.03,-6.31,6.91,142985
-5.72,11.13,-7.43,-2.59,3.95,-1.11,-23.27,-8.42,3.77,143019
-4.40,0.83,-9.87,-3.14,4.38,-1.51,-26.83,-11.28,-0.61,143053
-4.51,5.25,-5.85,-2.18,5.02,-0.49,-30.81,-12.96,-4.66,143087
2.07,12.18,-1.83,-1.78,5.73,-0.26,-33.78,-13.69,-10.30,143122
-1.94,11.32,-5.14,-0.62,5.69,0.08,-36.79,-13.74,-17.87,143156
-4.45,9.19,-6.12,-0.40,3.20,0.83,-37.08,-12.83,-23.30,143190
-0.84,7.98,-3.94,-0.38,2.01,1.48,-37.84,-10.71,-25.75,143224
-4.88,9.71,-3.85,-0.17,1.84,1.88,-37.88,-7.54,-28.00,143258
-9.57,7.21,-5.45,-0.27,1.11,1.48,-37.30,-5.16,-29.30,143292
-10.42,6.54,-5.80,0.01,0.85,0.45,-36.89,-3.73,-30.34,143327
-7.71,10.26,-3.85,0.06,0.89,-0.47,-36.70,-3.73,-32.07,143361
-5.05,11.81,-2.07,-0.31,1.56,-0.95,-36.80,-4.84,-33.28,143395
-4.50,13.61,-3.87,-0.68,1.93,-1.53,-35.56,-5.98,-36.36,143429
-4.07,8.53,-6.67,-0.68,1.35,-1.67,-35.57,-7.56,-37.01,143463
-6.37,2.89,-6.86,-0.45,0.92,-1.08,-34.67,-8.86,-38.41,143498
-6.17,7.92,-0.69,-0.03,0.38,-0.33,-34.65,-9.28,-38.89,143532
-5.22,7.81,-0.31,-0.43,1.05,-0.98,-34.46,-9.66,-39.68,143566
-4.65,4.70,-2.94,-0.01,0.34,-0.65,-33.48,-10.73,-40.82,143600
2.97,9.13,-2.01,0.55,-0.76,0.48,-34.00,-10.51,-39.89,143634
3.97,10.29,0.84,0.80,-1.06,1.24,-34.36,-9.63,-39.04,143668
2.98,12.85,1.51,0.19,-0.37,1.38,-34.79,-8.20,-39.04,143703
-2.59,11.63,-4.72,-0.60,0.80,0.14,-34.24,-7.31,-39.81,143737
-2.81,6.02,-6.98,-0.60,0.47,-0.06,-34.05,-8.05,-39.99,143771
2.43,9.33,0.55,-0.35,0.47,0.38,-34.01,-7.35,-40.46,143805
1.68,17.65,4.37,-2.20,4.20,-0.86,-32.56,-7.18,-43.34,143839
1.34,13.77,-6.48,-3.39,6.19,-2.31,-28.54,-6.83,-48.48,143874
-3.35,10.74,-14.79,-2.87,5.37,-2.60,-24.19,-6.99,-53.35,143908
-9.28,2.59,-10.87,-2.68,4.53,-2.30,-18.77,-6.11,-55.71,143942
-5.44,7.99,-5.57,-1.65,2.75,-1.46,-16.02,-5.99,-57.25,143976
-1.55,10.99,-3.80,-2.49,3.65,-1.10,-12.72,-3.54,-58.26,144010
5.37,9.47,-5.32,-2.58,4.08,-0.36,-6.81,-0.96,-58.62,144044
16.98,19.36,-3.94,-2.35,5.99,0.42,0.04,1.36,-57.72,144079
6.80,4.94,-6.17,-2.00,5.67,1.01,9.11,3.79,-55.80,144113
10.35,11.18,-7.82,-1.59,5.28,2.28,16.25,3.80,-52.53,144147
-6.88,5.18,-12.07,-1.07,3.80,2.42,22.87,2.88,-48.16,144181
-12.88,6.91,-14.32,-0.49,2.47,1.09,27.30,1.05,-45.13,144215
-11.94,7.58,-11.45,-0.45,2.30,0.02,29.57,0.94,-42.44,144250
-4.43,12.19,-0.27,-0.66,2.33,-0.23,32.14,1.27,-37.81,144284
-1.12,18.24,0.10,-1.17,2.86,-0.81,33.67,2.00,-33.59,144318
-0.63,11.77,-8.21,-1.66,3.65,-1.42,33.94,3.86,-26.43,144352
-6.67,7.64,-12.25,-1.70,3.74,-1.58,33.62,5.39,-21.28,144386
-7.06,7.91,-7.96,-1.67,3.51,-1.80,32.04,6.93,-15.52,144420
-2.17,8.77,-3.49,-1.70,3.45,-1.68,29.41,8.16,-9.44,144455
1.03,13.48,-1.75,-2.15,4.39,-1.12,26.31,8.29,-4.37,144489
-1.18,14.73,-5.96,-2.72,5.46,-1.14,22.84,7.26,3.67,144523
-0.54,7.47,-10.39,-2.71,4.94,-0.79,16.41,4.93,7.02,144557
6.88,8.25,-9.50,-1.98,4.46,0.67,12.04,2.69,10.11,144591
10.63,14.11,-5.64,-1.78,4.81,1.38,5.88,1.14,12.82,144625
-1.41,10.04,-8.63,-1.80,5.66,0.89,-0.48,-1.29,13.01,144660
-6.95,2.63,-7.77,-1.29,5.20,1.54,-6.50,-2.63,12.45,144694
-8.82,8.76,-13.04,-0.82,4.10,1.48,-12.23,-2.05,10.39,144728
-6.84,9.59,-8.54,-0.42,2.46,-0.44,-15.89,-1.84,8.97,144762
-5.90,5.06,-4.19,-0.94,3.02,-0.65,-19.20,-2.28,7.10,144796
-6.36,16.04,0.20,-1.04,3.93,-0.26,-22.51,-2.27,4.76,144831
-2.06,14.99,-6.33,-1.68,4.23,-1.40,-26.29,-4.21,0.73,144865
-5.28,10.07,-14.65,-1.99,4.39,-2.12,-30.20,-6.53,-3.64,144899
-8.03,5.12,-12.42,-1.75,3.53,-2.48,-32.61,-9.94,-7.15,144933
-5.03,7.44,-4.75,-1.47,3.12,-1.93,-34.67,-12.89,-12.12,144967
-2.89,12.97,-2.98,-1.75,3.57,-1.48,-35.78,-14.59,-16.19,145001
2.87,9.61,-3.55,-2.99,4.21,-1.24,-36.58,-16.21,-21.24,145036
4.40,7.43,-7.75,-1.97,3.95,-0.11,-36.35,-17.10,-27.81,145070
11.13,15.58,-6.28,-2.33,5.45,0.44,-35.85,-16.19,-34.07,145104
8.64,13.03,-4.88,-1.14,6.46,1.29,-33.21,-13.24,-42.17,145138
-0.63,7.55,-9.14,-1.82,6.22,1.61,-29.74,-11.47,-47.46,145172
-4.78,5.05,-15.28,-1.78,5.98,0.97,-24.13,-9.28,-52.81,145207
-6.30,6.86,-14.86,-1.33,5.15,0.12,-17.83,-8.26,-57.22,145241
-1.32,8.49,-11.21,-1.19,4.37,-0.38,-12.88,-7.40,-59.34,145275
-5.51,9.79,-4.82,-1.16,4.08,0.02,-8.17,-6.49,-60.29,145309
-1.87,14.99,-0.60,-0.98,3.81,-0.10,-2.37,-6.15,-60.70,145343
-3.51,13.98,-7.97,-1.34,4.55,-0.78,2.22,-5.12,-61.08,145377
-7.64,4.36,-12.73,-2.24,5.36,-2.15,9.62,-2.22,-58.92,145412
-3.07,4.94,-6.27,-1.40,3.78,-1.51,14.13,0.06,-57.02,145446
3.64,15.27,-0.18,-1.89,4.64,-1.45,18.02,2.54,-53.51,145480
1.22,13.37,-7.16,-2.78,5.93,-2.11,23.18,6.55,-46.81,145514
-3.27,8.08,-12.89,-2.76,5.50,-1.82,26.32,9.31,-40.28,145548
-7.77,7.73,-14.19,-2.20,4.33,-1.53,27.92,12.38,-32.32,145583
6.58,11.32,-10.63,-2.22,3.72,-0.71,27.87,13.99,-26.12,145617
5.59,9.50,-6.79,-2.19,3.76,0.27,28.08,12.79,-20.58,145651
22.89,14.54,3.97,-2.98,6.97,0.72,27.29,10.92,-10.19,145685
6.59,9.55,-10.63,-2.36,8.40,0.72,22.99,9.38,-1.04,145719
15.32,7.88,-14.83,-3.01,7.85,1.27,16.79,6.36,7.22,145753
-2.55,2.76,-24.97,-2.76,7.59,0.43,6.17,3.71,10.80,145788
-2.18,2.48,-20.62,-1.42,5.43,0.54,-1.23,2.56,11.55,145822
-5.97,11.67,-11.69,-1.27,4.61,0.23,-7.63,1.83,11.14,145856
-2.96,14.38,-4.25,-1.90,5.49,-0.37,-12.95,0.35,9.13,145890
-1.58,11.67,-1.83,-1.92,5.07,-0.73,-19.23,-0.79,6.17,145924
3.62,7.97,-9.03,-1.08,3.81,0.68,-24.20,-1.21,3.58,145958
-5.51,11.65,-8.27,-1.45,4.77,0.73,-27.17,-0.57,0.15,145993
1.27,12.74,-5.94,-1.62,4.04,-0.77,-30.66,-1.58,-4.46,146027
12.54,13.75,-3.21,-2.36,5.38,-1.04,-33.67,-3.14,-9.65,146061
14.63,16.33,-5.95,-2.47,5.68,-0.02,-35.78,-2.98,-15.71,146095
14.95,16.48,-9.61,-3.13,6.06,0.35,-37.26,-2.25,-21.41,146129
4.21,18.05,-22.76,-2.93,6.53,-0.49,-37.33,-2.21,-27.64,146164
-4.06,10.02,-21.74,-2.48,5.10,-1.01,-36.20,-3.41,-33.06,146198
5.17,11.98,-7.85,-2.17,2.70,0.59,-35.76,-2.98,-36.48,146232
1.58,18.18,-6.09,-2.25,3.32,0.90,-33.92,-1.97,-39.46,146266
-4.52,24.78,-13.51,-2.52,5.65,-0.22,-30.62,-1.33,-44.05,146300
-3.35,10.45,-25.67,-5.60,7.05,-1.79,-26.43,1.27,-49.80,146334
-23.70,16.63,-9.65,-3.35,4.44,-1.87,-22.19,3.96,-51.84,146369
-13.00,8.64,-10.87,-2.79,3.25,-0.59,-19.69,6.42,-53.08,146403
-7.27,8.89,-7.30,-2.06,2.24,0.32,-17.17,8.67,-53.36,146437
-12.81,8.76,-6.88,-1.63,1.56,0.64,-13.97,10.90,-53.83,146471
-6.59,7.09,-3.14,-1.28,0.87,0.77,-12.58,12.41,-53.89,146505
-7.11,5.57,-4.40,-1.45,1.79,0.52,-9.79,14.22,-53.43,146540
-5.10,4.33,-4.07,-1.94,2.35,0.60,-6.58,16.44,-52.31,146574
-3.04,2.36,-3.55,-2.40,3.10,1.01,-2.73,18.75,-50.89,146608
-1.23,-2.30,-3.31,-3.04,4.01,1.88,4.40,22.07,-46.40,146642
-16.14,37.29,38.51,-2.11,4.28,2.66,11.79,23.81,-41.67,146676
4.46,-22.47,2.75,-13.45,5.56,6.43,14.81,26.41,-30.40,146710
-11.03,2.19,-30.01,2.11,4.62,-3.41,16.30,26.91,-26.48,146745
-4.37,-5.01,-16.13,-1.08,2.32,0.68,16.33,26.70,-17.95,146779
-12.00,-4.32,-6.63,-1.66,1.68,-0.21,14.92,26.62,-13.45,146813
-8.68,0.00,-3.17,-1.16,0.73,-0.53,14.18,26.54,-11.79,146847
-3.46,4.87,-2.04,-0.68,0.71,-0.99,12.91,26.54,-10.39,146881
-9.42,5.37,-2.61,-1.25,1.40,-0.95,10.35,26.50,-8.48,146916
-17.29,8.22,-2.12,-0.90,1.21,-0.89,8.37,26.75,-6.31,146950
-14.61,8.84,-5.36,0.69,-1.09,-0.05,8.83,26.16,-6.94,146984
-10.68,8.69,-2.76,1.74,-2.62,0.91,10.55,25.68,-9.88,147018
-9.10,5.39,-0.41,2.46,-2.51,2.28,14.51,25.30,-16.02,147052
-1.76,-3.39,8.32,1.85,-2.38,2.71,18.30,23.36,-20.29,147086
2.18,-8.23,9.15,2.14,-1.13,2.33,21.16,21.63,-22.60,147121
-4.57,4.89,3.49,0.61,0.13,1.30,22.96,19.96,-22.99,147155
-8.41,11.95,-2.46,-1.75,2.02,0.62,23.78,19.76,-20.08,147189
-7.88,11.31,-6.02,-1.51,1.79,-0.09,23.88,19.22,-15.99,147223
-6.53,5.11,-2.21,-0.84,0.43,-0.10,23.81,19.04,-14.18,147257
-7.10,3.82,1.14,-0.27,0.33,0.70,23.65,18.65,-13.15,147291
-7.42,7.58,2.87,-0.36,0.75,0.66,24.64,18.08,-11.33,147326
-4.68,11.51,0.91,-0.61,0.70,0.53,24.74,17.55,-9.95,147360
-2.09,11.30,0.55,-0.56,0.62,0.53,24.70,16.75,-8.84,147394
0.88,7.95,0.15,-0.12,0.31,1.00,25.21,15.58,-8.48,147428
-6.71,13.08,0.69,0.25,0.42,2.17,26.78,13.67,-7.28,147462
-16.27,15.85,-10.42,-0.24,1.55,0.79,27.40,11.72,-5.67,147497
-3.46,12.87,-3.30,0.65,0.25,1.39,27.76,10.48,-5.52,147531
-5.05,6.51,-3.68,0.08,0.17,0.77,28.00,9.25,-4.55,147565
-1.87,9.92,-1.33,0.05,0.04,0.56,28.49,8.81,-5.32,147599
1.47,9.93,-2.25,-0.09,-0.16,0.58,28.90,7.64,-5.70,147633
2.64,11.82,-0.89,0.05,-0.17,0.86,29.68,6.28,-5.57,147667
0.49,12.26,-1.25,0.05,-0.18,1.27,30.25,5.16,-5.88,147702
-6.29,9.27,0.33,-0.08,-0.64,1.58,31.20,2.78,-6.69,147736
-18.05,7.29,-1.98,-0.36,-1.39,1.52,32.37,0.41,-8.32,147770
-21.95,5.66,-2.95,0.38,-2.14,0.57,33.28,-0.77,-10.57,147804
-18.96,7.23,-3.05,0.64,-1.64,-0.69,34.05,-0.76,-13.49,147838
-16.91,2.17,-3.87,0.25,-1.72,-1.50,34.13,1.59,-15.39,147873
-15.84,3.27,0.40,0.44,-1.76,-1.91,33.89,4.24,-17.86,147907
-0.14,6.95,1.15,0.42,-2.24,-1.55,33.32,6.97,-22.05,147941
10.96,23.36,3.00,0.56,-0.87,-0.63,33.38,8.18,-24.39,147975
5.53,12.89,0.34,-0.15,0.28,-0.86,31.86,10.00,-23.85,148009
6.17,13.43,-1.50,-0.28,0.36,-0.58,32.05,11.12,-22.74,148043
5.29,11.88,-0.84,-0.24,0.30,-0.06,31.94,11.74,-23.44,148078
-0.12,11.35,-0.73,-0.19,0.37,0.22,32.08,11.56,-22.48,148112
-1.19,10.51,-0.73,-0.11,0.20,0.44,32.26,11.41,-21.43,148146
-2.52,9.17,0.60,-0.13,0.38,0.54,32.72,10.54,-21.98,148180
-5.32,8.31,-2.51,-0.30,0.19,0.32,33.08,9.46,-21.06,148214
-3.13,9.52,-1.27,-0.22,-0.22,0.34,33.53,9.94,-21.22,148249
-4.35,8.70,-1.81,-0.49,-0.26,-0.02,33.31,9.68,-21.60,148283
-2.53,9.56,-1.33,-0.58,-0.55,-0.21,33.09,10.14,-21.97,148317
-0.71,11.54,-1.59,-0.76,-0.92,-0.48,33.10,10.79,-22.07,148351
-0.61,8.77,-0.71,-0.66,-1.38,-0.45,32.36,11.74,-23.82,148385
-2.57,12.04,-3.93,-0.18,-1.52,0.01,32.20,10.96,-25.34,148419
-9.86,8.09,-7.94,1.27,-3.38,1.38,32.45,9.63,-30.12,148454
-13.78,7.34,0.23,2.23,-6.82,2.00,31.54,6.77,-38.45,148488
-2.34,15.73,3.07,1.88,-3.96,-0.13,28.47,5.16,-44.50,148522
-17.98,0.98,-17.47,2.18,0.39,-1.61,26.86,5.13,-44.86,148556
0.53,5.55,-2.37,2.78,-4.76,-0.60,23.43,5.38,-48.80,148590
8.53,3.38,4.46,1.38,-3.32,-1.29,18.56,4.37,-52.67,148625
9.90,21.10,5.05,1.28,-2.14,-0.76,15.68,4.43,-54.53,148659
3.41,12.77,-2.48,-1.48,0.42,-1.78,14.62,5.16,-53.83,148693
6.28,10.96,-8.63,-0.37,-0.63,-1.38,12.80,6.75,-53.95,148727
5.03,16.30,-7.93,-0.25,-1.34,-0.31,11.39,7.51,-54.02,148761
4.86,15.55,-1.58,-0.61,-1.42,0.06,9.31,8.67,-53.89,148795
-2.99,9.05,-8.66,-1.00,-0.73,0.81,9.54,9.51,-53.70,148830
-14.97,10.64,3.89,-0.19,-0.09,1.97,10.42,9.03,-52.84,148864
-8.32,8.18,4.08,-0.73,1.63,-0.26,12.39,9.62,-51.36,148898
-10.56,5.03,-7.43,0.07,5.14,-1.60,16.12,10.86,-48.42,148932
-4.10,5.89,-0.40,1.20,0.65,-0.14,17.04,9.79,-47.71,148966
-1.05,9.61,0.63,2.01,0.28,-0.08,17.22,8.58,-47.90,149000
-0.30,10.33,2.95,1.85,1.16,-0.33,17.25,7.35,-49.37,149035
-2.88,9.63,3.26,1.26,1.33,-0.22,18.24,5.96,-48.93,149069
-2.38,8.26,1.81,0.86,0.60,-0.02,18.97,5.67,-48.45,149103
-2.05,8.02,0.87,0.63,0.11,0.27,19.76,5.00,-48.82,149137
-2.33,8.10,0.38,0.53,-0.12,0.45,20.10,4.52,-49.14,149171
-1.74,8.07,-0.65,0.48,-0.40,0.79,20.26,3.81,-48.90,149206
-1.14,8.78,-1.55,0.61,-0.15,0.91,20.21,2.02,-49.27,149240
-2.10,9.57,-1.53,0.62,-0.08,1.05,20.75,1.18,-49.53,149274
-2.48,8.73,-1.71,0.46,-0.57,1.36,21.29,-0.31,-49.69,149308
-3.13,9.18,-2.54,0.49,-1.16,1.67,21.22,-2.69,-50.99,149342
-1.25,10.44,0.15,0.07,-1.44,1.96,20.72,-3.65,-51.55,149376
-0.78,10.95,0.07,0.14,-0.43,1.41,20.56,-5.52,-52.00,149411
-1.08,10.70,-0.24,0.00,0.88,0.97,21.47,-6.15,-51.58,149445
-2.62,10.20,-2.18,-0.24,1.41,0.63,22.55,-6.58,-50.45,149479
-3.99,9.44,-2.10,-0.30,0.81,0.66,24.39,-7.51,-48.77,149513
-4.11,10.08,-2.01,-0.17,0.34,0.44,25.31,-7.22,-48.86,149547
-6.00,11.33,-1.52,-0.22,0.43,-0.32,25.53,-7.06,-48.47,149582
-8.09,10.89,-2.18,-0.35,-0.11,-1.21,25.26,-6.39,-48.20,149616
-6.84,9.95,-1.85,-0.55,-1.10,-1.60,24.14,-4.28,-48.67,149650
-7.40,9.28,-1.14,-0.59,-2.18,-1.91,22.26,-2.29,-50.51,149684
-7.14,9.72,-0.96,-0.70,-2.99,-1.93,18.96,-0.03,-52.50,149718
-6.25,8.58,-1.20,-0.74,-3.96,-1.81,13.48,2.05,-55.09,149752
-0.13,10.82,0.55,-0.57,-4.91,-1.11,8.46,3.83,-57.15,149787
-6.81,5.55,8.14,-0.08,-4.52,-0.32,2.65,4.79,-57.86,149821
-3.16,4.34,0.96,0.52,-3.86,-0.21,-3.83,4.49,-58.16,149855
-3.32,3.33,-1.04,0.71,-1.76,-0.40,-6.71,3.95,-58.33,149889
-27.97,-5.81,-17.16,-1.89,0.34,-2.26,-7.67,2.78,-58.58,149923
0.40,4.40,-4.79,-0.01,1.75,0.00,-5.39,3.77,-58.24,149958
-0.13,39.16,-26.68,2.83,0.35,3.01,-4.24,1.65,-58.84,149992
9.94,-13.51,1.21,-0.69,-0.71,-0.61,-3.42,2.10,-58.43,150026
-0.77,8.60,-0.13,-0.05,1.35,-0.16,-3.22,1.70,-58.97,150060
-0.69,10.16,-2.93,0.28,0.33,0.75,-2.29,1.58,-58.99,150094
-1.59,9.54,-0.16,0.06,-0.06,0.45,-1.68,1.61,-58.94,150128
-3.68,10.17,-2.20,-0.35,-0.05,-0.21,-1.75,1.56,-58.86,150163
-2.62,12.57,-3.48,-0.52,-0.73,-0.82,-2.54,2.35,-58.81,150197
-3.62,13.58,-5.64,-0.60,-1.06,-1.64,-4.02,3.01,-57.97,150231
-6.06,15.56,-2.24,-0.58,-0.53,-1.40,-5.67,4.06,-57.51,150265
-7.25,11.52,-0.08,-0.45,-0.53,-1.20,-7.10,3.87,-57.44,150299
-8.13,3.30,8.43,-1.28,-0.25,-1.47,-8.39,5.14,-56.62,150333
-6.74,2.47,1.31,-0.11,1.53,-2.04,-7.99,6.18,-57.15,150368
2.27,6.03,-0.09,0.21,2.56,-1.94,-5.95,5.54,-57.61,150402
-3.49,7.83,0.92,0.93,1.60,-1.08,-3.87,4.05,-57.60,150436
-2.48,7.83,0.88,0.83,0.65,-0.50,-3.05,3.55,-57.51,150470
-0.08,8.33,1.37,0.86,0.39,-0.03,-2.92,2.66,-58.20,150504
-3.17,8.17,0.07,0.64,0.97,0.09,-1.33,1.48,-58.67,150539
-4.54,7.78,-1.49,0.50,1.00,0.19,0.80,1.34,-58.27,150573
-5.50,7.47,-2.68,0.69,0.54,0.40,1.64,0.32,-58.61,150607
-13.15,11.31,-3.55,1.03,-0.01,0.46,2.81,-1.11,-58.99,150641
19.19,8.89,-3.30,-0.69,-4.38,1.08,0.44,-2.16,-59.62,150675
-4.52,7.10,0.14,0.26,-0.83,0.30,-0.75,-3.14,-59.89,150709
-5.11,5.26,0.99,0.58,-1.18,0.47,-1.07,-3.54,-60.29,150744
-2.58,10.59,-0.02,1.03,-1.55,0.69,-2.75,-4.59,-59.62,150778
-3.07,10.07,2.73,0.81,-1.43,0.60,-4.33,-6.20,-59.79,150812
-3.36,9.79,3.41,0.41,-0.24,0.30,-4.93,-7.02,-59.65,150846
-5.11,8.60,-0.77,-0.73,1.09,0.36,-2.78,-6.17,-59.98,150880
-5.20,7.37,-4.86,-1.38,1.72,0.38,-0.79,-4.57,-59.66,150915
-3.42,5.64,-5.21,-1.35,1.75,0.65,2.47,-3.35,-59.76,150949
-3.07,9.68,-3.20,-1.12,1.79,0.62,5.25,-2.09,-59.12,150983
