ax,ay,az,gx,gy,gz,mx,my,mz,timestamp
-1.66,-9.57,-0.48,0.02,-0.02,-0.15,-19.64,-15.54,-58.99,6824
-1.70,-9.73,-0.55,-0.05,-0.03,-0.15,-20.29,-15.62,-59.13,6858
-1.25,-9.85,-0.55,0.07,0.06,-0.11,-20.32,-15.21,-58.86,6892
-1.34,-9.57,-0.04,0.13,0.03,-0.12,-19.77,-15.52,-58.58,6926
-0.16,-9.70,-0.51,-0.05,0.04,-0.11,-19.67,-16.57,-59.02,6960
-1.93,-9.20,0.52,0.12,0.62,-0.04,-18.30,-16.47,-58.75,6995
-2.66,-10.45,-0.42,-0.22,0.73,-0.03,-17.28,-16.21,-59.35,7029
-2.70,-9.56,-0.82,0.09,0.79,0.08,-16.75,-16.35,-59.97,7063
-2.89,-9.51,-0.87,0.12,0.63,0.04,-16.14,-16.35,-60.46,7097
-2.08,-9.76,-0.55,0.13,0.80,-0.05,-14.98,-16.57,-61.06,7131
-1.00,-9.83,-0.39,0.07,0.99,-0.23,-13.42,-16.38,-61.62,7166
0.67,-10.25,0.61,0.12,1.80,-0.48,-12.51,-17.38,-61.78,7200
-1.22,-9.90,0.12,0.04,1.90,-0.98,-8.81,-17.70,-62.25,7234
-1.46,-9.86,-1.77,-0.09,1.67,-1.39,-6.75,-17.00,-62.36,7268
-3.77,-9.05,-4.58,-0.21,0.78,-1.56,-5.32,-17.66,-63.27,7302
-0.20,-10.40,-4.16,-0.61,0.39,-1.37,-4.79,-17.14,-63.93,7336
-3.43,-10.31,0.18,0.05,0.26,-1.34,-3.51,-17.07,-63.78,7371
0.10,-8.76,0.43,0.14,-0.54,-1.40,-4.21,-17.44,-64.00,7405
-0.55,-8.87,0.27,0.07,-0.59,-1.06,-4.49,-17.63,-63.37,7439
-0.23,-9.64,-0.22,-0.14,-0.17,-0.77,-5.35,-17.38,-63.30,7473
0.35,-10.28,1.31,-0.20,-0.35,-0.62,-5.17,-17.38,-63.04,7507
1.37,-10.78,-2.90,0.08,-0.44,-0.37,-5.74,-17.33,-63.04,7541
1.97,-9.63,-2.14,0.13,-0.41,-0.16,-6.66,-17.13,-62.95,7576
3.45,-9.30,-1.80,0.21,-0.50,-0.15,-6.68,-17.29,-63.05,7610
3.91,-9.57,-0.53,0.37,-0.97,0.17,-7.54,-17.10,-62.48,7644
4.83,-9.26,-1.00,0.54,-1.08,0.12,-9.62,-17.19,-62.72,7678
3.46,-8.57,-3.58,0.47,-0.66,0.26,-10.19,-17.74,-62.07,7712
3.11,-8.51,-3.14,0.51,-0.43,0.27,-10.38,-17.96,-61.66,7747
2.32,-8.65,-2.75,0.42,-0.23,0.07,-10.65,-18.61,-61.87,7781
1.34,-8.65,-2.77,0.31,0.01,-0.24,-10.65,-18.56,-61.44,7815
-0.28,-10.28,-0.04,0.31,0.48,-0.28,-10.70,-18.81,-61.77,7849
-0.65,-11.30,-0.09,0.31,0.50,-0.32,-9.79,-19.19,-61.84,7883
-0.72,-12.12,0.38,0.64,0.97,-0.09,-8.52,-19.77,-62.01,7917
-4.16,-10.93,-0.25,0.93,1.10,0.06,-7.21,-20.36,-62.23,7952
-4.16,-12.31,-3.84,1.01,2.46,0.54,-4.56,-21.69,-61.90,7986
-5.72,-13.49,-7.80,0.85,3.09,0.92,0.73,-22.81,-62.93,8020
6.92,-15.24,-5.77,0.81,2.55,1.24,3.71,-24.38,-62.23,8054
6.39,-11.44,-10.71,-0.02,3.06,-0.40,7.42,-25.30,-61.17,8088
3.31,-7.01,-2.54,-0.84,0.15,-0.85,9.62,-24.64,-61.08,8123
2.95,-5.11,-2.60,-1.15,-1.31,-0.90,9.05,-23.33,-61.39,8157
4.93,-3.79,-1.81,-1.63,-2.76,-0.44,6.01,-21.46,-61.55,8191
5.31,-5.30,-0.18,-1.94,-2.69,0.26,2.76,-19.99,-63.37,8225
4.94,-6.17,2.21,-1.46,-2.33,0.77,-0.70,-18.28,-63.67,8259
6.39,-8.64,2.58,-0.67,-1.82,0.92,-3.26,-17.35,-64.18,8293
6.23,-5.81,1.31,-0.20,-2.17,0.85,-5.90,-17.04,-63.52,8328
-2.39,8.74,8.04,2.95,-1.68,-1.13,-8.29,-17.92,-62.82,8362
-1.40,-5.24,8.36,1.45,0.53,-1.57,-10.26,-19.94,-62.67,8396
14.82,-11.78,-3.66,0.73,-1.32,-1.50,-12.35,-21.69,-62.28,8430
1.18,-13.23,1.46,1.01,1.46,-0.43,-10.64,-22.83,-62.41,8464
0.25,-10.73,-2.41,1.25,0.86,-0.18,-9.24,-24.60,-62.88,8499
0.53,-11.73,-4.22,0.97,0.16,-0.36,-8.73,-26.16,-62.10,8533
-8.22,-12.60,-6.68,1.01,1.51,-1.08,-5.99,-27.61,-62.26,8567
0.78,-15.42,-6.85,1.16,0.00,-2.03,-5.06,-29.92,-62.72,8601
5.44,-10.87,-4.94,1.48,0.89,-2.74,-3.55,-32.46,-61.84,8635
0.07,-11.24,-1.84,0.70,-0.15,-2.95,-1.05,-33.81,-62.38,8669
-3.85,-7.51,-1.33,0.56,-1.83,-2.54,-1.55,-34.43,-62.61,8704
1.75,-3.38,-1.61,-0.11,-3.77,-1.52,-5.03,-34.96,-62.36,8738
1.21,-2.88,-1.18,-0.26,-3.45,0.02,-9.69,-34.62,-61.22,8772
4.03,-3.93,-1.45,-0.36,-2.92,1.07,-14.19,-33.03,-61.02,8806
4.08,-5.68,0.62,-0.21,-2.04,2.11,-18.81,-30.77,-59.46,8840
3.01,-8.38,-0.73,-0.18,-2.51,2.47,-22.95,-28.88,-58.32,8875
3.51,-9.31,-1.50,0.02,-3.17,2.44,-28.40,-25.30,-55.03,8909
7.90,-10.45,-2.82,0.06,-2.88,2.28,-32.56,-22.76,-52.22,8943
6.79,-10.68,-3.84,-0.11,-1.31,2.10,-35.38,-19.82,-50.41,8977
4.85,-11.20,-1.46,-0.30,0.15,1.42,-35.49,-16.47,-50.44,9011
-1.12,-17.84,-4.52,-0.45,0.10,0.63,-35.34,-14.94,-50.83,9045
13.89,-10.44,4.57,0.11,-1.76,-1.55,-35.79,-15.46,-48.25,9080
7.42,-8.06,-2.51,0.01,-0.31,-0.72,-37.26,-16.54,-48.67,9114
-0.87,-9.02,-2.45,0.07,0.65,-0.27,-36.19,-16.08,-49.46,9148
3.43,-9.14,-0.69,-0.06,-0.05,-0.33,-35.74,-16.68,-49.53,9182
0.25,-8.95,-2.42,0.12,0.58,-0.37,-35.50,-16.19,-50.23,9216
0.52,-9.35,-2.77,0.01,0.21,-0.46,-35.75,-16.71,-50.25,9250
1.56,-10.40,-3.31,-0.04,0.32,-0.47,-35.15,-16.81,-49.94,9285
-0.13,-10.54,-1.32,0.07,0.55,-0.14,-34.39,-16.71,-51.24,9319
-1.11,-10.25,-0.08,0.25,0.61,0.10,-33.46,-16.78,-51.87,9353
1.01,-10.39,-0.34,0.19,0.96,0.47,-32.37,-16.31,-53.26,9387
-0.09,-9.98,1.38,0.10,1.61,0.76,-31.01,-15.24,-54.27,9421
-2.59,-10.09,-1.06,0.55,0.71,0.70,-29.57,-14.50,-54.41,9456
1.77,-9.15,-4.06,0.71,-0.17,0.31,-29.52,-14.85,-54.52,9490
-1.23,-9.96,-3.89,0.74,-0.78,-0.17,-30.08,-14.82,-54.34,9524
-0.83,-8.48,-4.76,0.86,-1.34,-0.56,-30.71,-16.56,-52.02,9558
1.87,-9.53,-3.64,0.89,-2.23,-0.82,-32.68,-17.71,-50.07,9592
0.50,-8.19,-3.78,0.90,-2.14,-1.15,-33.73,-19.50,-47.24,9626
-0.93,-9.66,-2.22,0.84,-1.85,-0.89,-34.46,-20.02,-44.55,9661
2.92,-9.00,-4.41,0.74,-2.34,-0.69,-35.43,-21.56,-42.01,9695
6.95,-5.60,-4.58,0.59,-1.88,-0.74,-35.06,-22.45,-38.85,9729
9.39,-5.12,-2.26,0.15,-0.81,-1.02,-35.44,-23.43,-37.72,9763
8.01,-9.56,0.00,-0.36,0.65,-0.65,-34.74,-24.58,-37.59,9797
-0.09,-14.65,1.05,-0.03,1.40,0.39,-34.00,-24.17,-40.05,9832
-7.18,-18.89,-0.29,0.89,2.37,2.67,-33.32,-21.86,-42.08,9866
-6.66,-17.48,-6.17,1.57,4.78,5.10,-30.25,-16.82,-47.44,9900
1.79,5.28,-36.56,0.62,9.31,4.06,-23.84,-13.64,-55.71,9934
-13.25,-1.53,-13.80,-2.36,14.11,0.00,-9.38,-12.44,-61.74,9968
5.11,5.48,-10.93,-3.81,7.85,-1.25,3.79,-8.64,-61.01,10002
16.44,7.29,5.81,-2.97,7.35,0.29,11.88,-5.96,-58.45,10037
-16.81,-24.06,23.01,-1.05,3.00,-0.92,18.75,-4.71,-55.35,10071
34.30,-39.20,-39.16,0.43,-6.53,-3.50,13.42,-3.84,-57.51,10105
-21.19,3.03,3.37,-0.19,2.44,-2.09,15.08,-2.22,-55.83,10139
2.23,-9.11,1.19,-0.72,2.60,-0.28,16.56,-1.89,-54.38,10173
11.02,-12.66,-1.36,0.02,1.96,-0.29,18.52,-1.72,-53.99,10208
6.74,-10.04,-9.60,-0.25,1.79,0.40,20.46,-2.43,-53.49,10242
1.50,-13.17,-12.08,-0.37,2.20,0.60,23.00,-2.92,-52.22,10276
3.80,-23.10,-14.57,0.49,1.59,-0.38,25.12,-3.32,-51.93,10310
-21.54,-20.52,1.14,1.65,2.07,-4.82,25.81,-0.01,-50.45,10344
-14.52,20.45,-35.36,0.30,-6.32,-5.76,20.45,3.38,-54.97,10378
-36.30,8.39,3.55,3.32,-8.40,-1.57,10.77,2.37,-60.71,10413
5.67,-18.64,-2.03,3.73,-12.84,1.82,-5.13,-1.78,-63.72,10447
39.16,-1.37,-39.16,3.05,-9.14,2.48,-16.85,-5.33,-61.46,10481
-15.47,-24.17,-32.02,-0.18,-0.46,1.35,-18.96,-6.14,-60.61,10515
14.93,-12.19,19.78,-0.55,1.66,-2.26,-18.87,-5.63,-62.35,10549
10.69,-15.35,-11.88,0.53,-1.12,-1.82,-18.71,-6.65,-62.83,10583
11.52,-19.59,9.44,1.18,0.39,-0.97,-18.14,-8.55,-63.14,10618
2.84,-2.56,-9.53,2.10,-0.53,-2.44,-19.23,-11.94,-63.04,10652
-4.82,-10.40,-7.03,1.50,0.77,-0.32,-18.62,-17.90,-63.01,10686
-2.35,-9.34,-0.42,1.45,0.10,-0.16,-18.44,-15.62,-63.86,10720
1.94,2.67,0.45,1.87,-0.40,0.10,-18.72,-18.14,-62.50,10754
0.15,-15.60,-8.72,1.20,-0.07,1.41,-19.51,-18.96,-63.31,10789
6.48,-6.77,-2.68,0.20,1.65,0.32,-18.21,-19.01,-64.09,10823
5.55,-3.14,-4.80,0.38,0.78,-0.38,-16.68,-19.31,-64.10,10857
8.34,-9.54,-3.57,0.33,0.80,-0.44,-16.21,-20.04,-64.70,10891
3.16,-9.73,-4.00,0.38,0.97,-0.07,-14.53,-20.87,-65.33,10925
3.57,-16.38,-2.26,0.47,1.94,1.79,-12.32,-19.95,-66.31,10959
-4.45,-15.67,-2.84,0.95,4.64,3.51,-8.07,-20.07,-66.90,10994
-6.23,-13.27,-9.60,1.06,7.38,4.41,0.20,-20.64,-67.67,11028
-5.07,-3.46,-13.68,-0.14,10.65,3.88,16.43,-21.50,-63.71,11062
-1.27,7.78,-19.55,-2.51,9.93,1.22,28.24,-21.10,-56.80,11096
6.42,2.21,0.45,-3.82,3.38,1.04,33.70,-18.28,-52.92,11130
9.34,-4.65,-1.72,-2.84,0.32,0.03,34.67,-15.05,-51.75,11165
5.82,-3.73,19.02,-1.39,0.62,-3.21,34.92,-10.65,-50.69,11199
-38.20,-11.22,9.48,0.65,-2.59,-4.35,31.23,-3.87,-52.98,11233
36.73,1.56,-11.77,0.81,-1.43,-4.95,23.30,-0.75,-57.47,11267
-4.57,-2.21,12.40,1.08,-1.46,-2.07,23.74,1.26,-57.38,11301
-1.68,-16.15,9.41,0.95,-0.35,-0.21,22.30,0.77,-58.42,11335
-2.38,-4.02,-0.87,1.95,-2.24,-1.42,19.26,-0.88,-60.23,11370
10.43,-7.85,-12.71,0.99,-2.23,-0.74,15.80,-2.53,-61.94,11404
10.50,-12.66,3.11,0.70,-1.09,-0.98,13.96,-2.95,-63.01,11438
1.90,-8.49,-7.68,0.24,-1.38,-1.88,12.47,-2.88,-63.43,11472
2.22,-7.71,-4.51,0.12,-0.44,-1.46,10.84,-2.59,-63.39,11506
3.27,-1.16,-2.06,0.45,0.21,-1.92,10.16,-2.32,-63.49,11541
6.69,-6.33,-6.42,-0.04,1.23,-1.49,10.64,-2.19,-62.69,11575
5.30,-10.19,-5.41,0.09,2.23,-0.12,13.97,-1.61,-60.65,11609
-2.43,-16.60,-6.45,0.78,0.64,0.87,15.87,-2.37,-60.06,11643
5.07,-20.64,-4.06,1.31,0.12,1.62,16.59,-5.29,-60.46,11677
-12.31,-19.73,-13.14,1.90,-0.74,-1.06,16.88,-7.19,-61.43,11711
-8.04,2.71,-14.13,0.11,-6.85,-6.21,11.46,-6.18,-62.32,11746
-21.97,16.16,-3.16,0.42,-7.32,-2.77,-0.51,-6.02,-62.47,11780
-12.80,-7.02,4.80,1.51,-8.76,0.67,-9.98,-6.75,-60.74,11814
12.77,-2.33,-8.92,1.32,-7.76,1.43,-18.99,-7.12,-54.46,11848
15.88,6.39,-6.02,2.30,4.09,-0.42,-21.46,-8.32,-53.74,11882
7.75,-39.20,-30.39,0.23,-3.29,0.08,-24.14,-8.42,-51.46,11916
12.20,-1.90,11.84,0.04,2.15,-3.07,-23.59,-11.34,-52.27,11951
12.64,-15.22,-16.85,0.14,-0.75,-1.99,-24.42,-14.44,-50.70,11985
5.36,-13.46,4.65,0.92,-0.85,-2.11,-24.28,-16.31,-50.79,12019
-6.13,-17.92,2.17,1.40,-0.83,-1.75,-24.93,-19.91,-49.87,12053
-6.87,-15.63,-5.31,1.68,-0.83,-0.75,-25.48,-22.39,-48.52,12087
-4.88,-7.45,-0.31,1.31,0.02,1.15,-25.74,-23.82,-48.66,12122
-0.75,-8.80,-9.80,0.45,2.63,3.08,-25.59,-21.92,-50.47,12156
10.82,2.40,-9.28,-0.92,5.93,3.68,-22.55,-18.84,-54.84,12190
9.21,-10.07,13.43,-1.72,7.26,3.02,-14.70,-15.42,-60.71,12224
23.35,-14.36,6.66,1.85,-2.68,-2.16,-14.70,-16.65,-59.54,12258
9.16,-7.87,-8.69,-0.32,1.22,-1.93,-14.59,-18.82,-60.38,12292
12.38,-9.32,2.92,0.70,1.07,-1.35,-13.30,-19.58,-60.52,12327
4.83,-13.34,-3.18,0.99,0.95,-0.45,-12.22,-20.96,-60.42,12361
-3.23,-24.42,-1.84,0.62,2.63,1.31,-9.73,-21.35,-61.02,12395
-11.20,-26.98,-4.38,0.79,5.63,1.87,-4.62,-21.51,-62.64,12429
-29.82,-13.63,-23.76,0.11,8.43,2.57,4.37,-22.05,-62.20,12463
8.50,16.11,-37.85,-1.10,10.65,2.80,15.00,-21.34,-59.82,12498
-10.77,-7.23,-8.48,-4.31,7.59,4.07,24.52,-20.77,-54.75,12532
16.37,0.36,-3.58,-4.86,4.32,1.93,28.68,-18.61,-51.46,12566
4.24,-3.02,11.72,-3.33,5.67,0.03,32.74,-14.66,-46.42,12600
-19.56,-1.06,37.36,0.24,0.44,-4.34,32.46,-11.08,-47.57,12634
39.16,-16.82,21.03,-1.00,-9.34,-8.13,20.87,-5.66,-55.77,12668
-5.69,-4.31,8.42,0.18,-2.20,-3.74,20.94,-3.20,-54.56,12703
-2.41,-19.54,15.10,0.54,-0.57,-1.55,18.66,-2.56,-55.70,12737
-2.57,-23.68,8.91,1.72,-1.03,-3.06,16.34,-3.23,-56.85,12771
-0.98,2.74,-0.80,2.13,-2.33,-3.08,13.61,-3.68,-58.33,12805
6.62,-16.05,-10.13,-0.28,1.22,-0.16,13.30,-4.12,-58.23,12839
10.60,4.68,0.45,-0.28,2.82,0.10,16.52,-4.56,-57.31,12874
17.11,-8.55,-6.90,0.24,1.15,0.52,18.80,-4.69,-55.83,12908
15.82,-5.60,-17.64,0.00,1.71,-0.13,21.70,-5.14,-54.38,12942
4.55,-9.13,-16.41,0.27,1.64,-0.04,23.40,-6.21,-53.11,12976
-6.65,-23.11,-14.74,0.38,0.80,-0.38,24.69,-6.64,-52.03,13010
-2.87,-11.68,-5.93,1.47,0.03,-3.81,24.54,-5.57,-52.84,13044
-25.19,19.92,-8.60,0.05,-6.12,-3.39,19.99,-3.62,-56.12,13079
-16.59,-4.33,4.32,1.71,-13.57,-0.38,2.91,-4.24,-61.90,13113
5.10,-9.14,-7.20,2.46,-12.21,0.01,-12.74,-6.46,-60.29,13147
27.22,-2.58,-11.77,1.65,-5.90,-0.42,-21.16,-9.11,-54.91,13181
24.56,-33.34,-23.02,-0.91,-2.60,-2.20,-22.83,-10.44,-55.41,13215
-9.81,-6.15,-0.25,-0.66,4.37,-0.60,-21.79,-11.47,-57.19,13250
13.30,-15.95,9.11,0.33,1.31,-0.94,-20.81,-11.85,-57.75,13284
-4.27,-2.01,-2.43,1.33,0.26,-1.45,-20.46,-14.35,-58.04,13318
-8.40,-19.85,-5.95,0.97,0.81,1.42,-20.08,-14.85,-58.64,13352
-7.09,-15.35,1.95,1.25,1.16,1.94,-18.56,-14.25,-59.08,13386
-1.15,-2.01,-3.54,2.20,-1.73,1.01,-20.04,-15.36,-59.13,13420
1.92,-3.68,-8.37,1.95,-2.30,0.39,-22.70,-17.48,-57.41,13455
-0.43,-6.48,-9.64,0.89,-0.55,-0.26,-24.19,-18.49,-56.20,13489
0.77,-8.29,-7.58,0.76,-1.39,-1.08,-25.05,-20.14,-55.33,13523
1.72,-11.23,-2.48,0.68,-1.24,-0.71,-26.00,-21.05,-53.54,13557
7.77,-7.81,-2.51,1.14,-1.71,-1.17,-27.11,-23.17,-52.32,13591
6.52,-7.20,-4.56,0.85,-1.51,-1.19,-28.09,-25.10,-49.68,13625
5.94,-7.98,-2.04,0.88,-0.90,-0.89,-28.94,-26.81,-48.51,13660
6.90,-6.88,-2.50,1.10,-1.40,-0.97,-29.16,-27.99,-46.77,13694
6.61,-8.49,-3.62,0.82,-0.97,-0.78,-29.96,-29.32,-45.88,13728
4.69,-6.10,-2.48,0.58,-0.70,-1.01,-29.90,-31.06,-44.69,13762
5.24,-4.65,-6.63,-0.30,-0.08,-0.66,-29.35,-31.89,-44.49,13796
7.15,-10.27,-4.06,-0.42,0.74,-0.79,-28.65,-32.36,-45.41,13831
2.63,-14.24,-0.31,0.04,1.68,-0.07,-28.19,-32.26,-46.93,13865
-0.16,-19.89,-1.66,0.38,2.86,1.06,-25.90,-31.28,-50.09,13899
-18.96,-15.49,-15.60,0.34,7.58,3.05,-22.01,-29.38,-55.80,13933
-19.39,0.04,-38.69,-0.24,9.38,4.26,-15.86,-27.23,-60.58,13967
8.25,5.12,-14.87,-1.41,10.23,3.68,-3.58,-24.22,-65.70,14001
-15.42,3.25,-10.27,-4.41,10.87,2.43,12.72,-20.64,-65.24,14036
8.47,-0.06,-3.21,-3.21,7.35,1.26,22.68,-16.98,-60.16,14070
36.94,-7.17,-23.62,-1.82,5.32,-0.89,31.38,-12.95,-55.60,14104
-15.29,-38.12,9.35,0.29,-4.88,-3.01,31.13,-10.13,-58.04,14138
-7.02,-19.17,7.06,-0.18,-0.31,-3.73,27.35,-5.41,-59.94,14172
-4.53,-7.10,7.98,0.80,-0.98,-2.06,26.03,-2.95,-60.73,14207
11.97,-8.98,1.44,1.16,-0.88,-0.73,24.52,-3.22,-62.12,14241
8.55,-7.91,-2.50,1.58,-1.26,-1.93,21.44,-3.16,-63.68,14275
7.58,-9.40,-14.90,0.19,-0.13,-1.40,19.99,-2.82,-64.22,14309
3.19,-8.87,1.39,-0.58,2.04,-1.50,22.07,-0.15,-61.55,14343
5.07,-4.93,-4.10,-0.80,1.95,-1.29,23.09,1.83,-60.20,14377
6.65,-8.21,-12.24,-1.31,2.24,-0.16,25.36,3.74,-57.51,14412
7.65,-13.06,-10.12,-1.07,2.39,0.63,27.32,5.35,-52.43,14446
6.71,-22.74,-14.79,-0.14,1.00,0.24,29.03,4.95,-51.62,14480
-8.21,-28.37,-7.75,1.23,0.49,-3.16,28.12,6.01,-50.80,14514
-4.71,15.14,-33.11,3.39,-2.16,-4.74,23.06,7.92,-54.17,14548
-24.78,9.72,20.58,3.31,-7.71,-1.10,13.29,7.13,-59.15,14583
-13.68,-27.35,-3.58,2.87,-13.33,1.86,-0.56,3.05,-62.00,14617
-2.69,-7.73,-14.09,4.08,-11.78,1.05,-15.35,-1.30,-59.18,14651
-9.80,5.91,-7.86,1.71,0.47,0.98,-20.26,-3.36,-58.20,14685
33.00,-14.31,1.50,-0.45,0.52,-1.11,-19.64,-1.77,-56.88,14719
-4.05,-12.30,-7.54,0.09,0.46,-0.62,-18.43,-2.51,-57.86,14753
4.33,-20.59,10.70,1.41,-0.95,-0.32,-18.90,-3.51,-57.02,14788
12.32,-12.93,-8.56,1.21,-0.61,0.97,-20.77,-5.39,-56.87,14822
8.28,-8.88,-2.95,1.06,0.33,0.67,-20.36,-5.69,-57.41,14856
6.20,-8.25,-4.83,1.00,2.08,-0.88,-19.23,-7.38,-59.13,14890
-5.06,-1.16,-5.56,0.27,3.51,-0.73,-15.51,-7.78,-60.42,14924
-2.68,-13.75,-4.64,0.24,1.14,0.26,-14.06,-8.52,-60.83,14958
1.12,-11.16,-2.43,0.75,0.50,-0.32,-13.23,-8.89,-61.93,14993
-3.82,-8.14,-3.71,0.74,0.36,-0.43,-12.79,-10.49,-61.68,15027
2.30,-9.01,0.79,1.28,-1.69,-0.92,-14.09,-12.01,-61.33,15061
0.75,-7.95,-2.31,1.57,-2.43,-1.35,-16.59,-14.43,-59.82,15095
6.02,-3.29,-4.62,1.67,-3.08,-1.50,-19.47,-16.88,-57.97,15129
10.14,-8.77,-7.05,0.40,-1.31,-1.37,-21.10,-18.65,-56.20,15164
2.95,-8.30,-0.13,-0.06,1.24,-1.21,-20.42,-19.51,-56.42,15198
5.09,-9.21,-1.50,0.01,1.51,-0.47,-18.34,-19.86,-57.82,15232
9.99,-13.55,-7.34,0.31,1.84,0.28,-17.19,-20.13,-58.43,15266
3.19,-15.83,-10.51,0.57,3.16,0.70,-13.83,-20.68,-60.55,15300
-14.80,-22.22,-10.89,0.01,5.74,1.67,-6.65,-20.49,-62.01,15334
-24.73,-4.87,-12.84,-1.49,9.06,3.22,2.75,-19.13,-62.61,15369
16.53,6.47,2.07,-2.04,9.71,4.58,13.34,-18.46,-59.62,15403
-11.53,0.36,-10.43,-4.32,8.41,4.09,25.81,-17.68,-52.88,15437
1.72,-5.04,-1.91,-2.86,6.35,2.55,31.35,-18.50,-47.37,15471
1.86,-5.04,1.15,-1.67,5.72,-0.04,35.95,-18.58,-39.75,15505
-15.57,-26.75,2.40,-0.75,-2.17,-3.01,37.23,-15.05,-39.78,15540
-12.37,-31.42,-10.09,-0.73,-1.95,-3.97,35.43,-10.39,-43.09,15574
-8.50,-13.31,5.04,0.04,-0.15,-1.82,35.25,-7.60,-42.56,15608
-1.31,-15.70,5.50,0.61,-0.10,-0.28,34.76,-6.85,-43.98,15642
-0.48,-15.11,1.54,1.17,-1.05,-0.95,33.75,-6.68,-45.53,15676
-1.71,-8.34,-9.67,1.06,-2.01,-0.33,32.27,-6.24,-48.07,15710
6.59,-9.44,0.42,0.79,-0.72,-0.54,30.66,-6.37,-49.18,15745
1.79,-0.28,-2.47,0.98,-0.59,-1.29,29.89,-6.55,-49.69,15779
10.47,-6.64,-4.95,0.41,-0.52,-1.07,28.56,-6.28,-51.74,15813
10.42,-7.37,-9.21,-0.28,0.49,-1.23,28.47,-5.12,-51.18,15847
8.79,-9.75,-9.96,-0.88,1.96,-0.25,30.08,-4.11,-48.83,15881
6.52,-18.24,-4.94,-0.32,1.19,-0.04,31.69,-4.36,-46.43,15916
-0.08,-28.75,-6.82,0.09,0.55,-0.39,32.18,-3.77,-46.08,15950
-8.39,-25.93,-9.16,1.29,-0.37,-4.53,30.40,-0.76,-46.87,15984
-28.09,18.81,-14.27,1.36,-6.24,-4.21,26.45,2.41,-50.44,16018
-21.87,2.41,7.54,2.88,-10.88,-1.45,13.83,1.59,-59.88,16052
-10.31,-13.73,-5.02,5.06,-13.77,-0.21,-1.74,-3.65,-62.74,16086
30.37,-4.05,9.02,3.99,-5.28,-3.12,-17.33,-9.95,-59.21,16121
21.22,-4.27,-23.70,1.77,-4.67,-1.14,-21.47,-13.12,-58.01,16155
25.93,-6.30,-22.15,-1.06,1.33,-2.16,-22.30,-12.50,-57.60,16189
-3.19,-0.02,1.46,0.42,0.66,-1.64,-19.58,-13.81,-59.41,16223
1.14,-21.41,7.50,0.73,1.04,-0.32,-18.74,-14.79,-58.89,16257
4.95,6.21,-3.50,2.37,-1.98,-1.72,-19.98,-17.66,-58.40,16291
6.27,-10.15,-9.87,2.16,-2.54,-0.32,-22.43,-20.71,-56.21,16326
10.28,-1.87,-7.63,1.56,-0.94,-0.63,-23.52,-22.67,-55.19,16360
-1.65,-11.29,-5.70,0.68,2.21,0.66,-22.41,-23.68,-56.01,16394
-2.30,-19.85,-1.19,1.00,1.48,1.71,-21.10,-23.71,-57.45,16428
-2.84,-19.06,-0.89,1.54,4.65,3.74,-18.85,-23.25,-59.49,16462
-0.82,-6.33,-20.73,1.44,8.80,4.71,-9.02,-22.07,-63.61,16497
39.16,-0.75,-22.69,-0.37,12.59,4.53,5.63,-21.25,-64.95,16531
7.83,-0.87,2.99,-3.48,7.33,0.40,19.99,-18.68,-59.60,16565
16.44,0.36,-9.49,-3.55,3.86,-0.38,26.79,-13.24,-57.15,16599
-30.38,-5.15,-1.84,-0.32,11.64,-2.28,34.86,-8.77,-48.23,16633
-23.36,-39.20,-5.51,-0.13,-4.62,-2.03,32.55,-4.38,-50.96,16667
15.78,-13.34,5.00,-0.48,-0.54,-3.90,29.86,-0.58,-51.40,16702
-8.07,-25.88,-7.60,-0.12,-1.54,-0.48,29.42,1.37,-51.14,16736
6.03,-16.92,10.84,0.77,-0.98,0.05,28.00,1.18,-52.31,16770
3.95,-21.13,9.69,2.11,-0.38,-2.19,25.43,1.10,-53.54,16804
-6.94,-9.19,-19.06,0.42,0.40,-0.64,23.15,0.47,-55.03,16838
5.92,-7.92,4.02,-0.80,1.93,-0.64,24.44,1.86,-52.94,16873
2.35,-2.52,-3.62,0.76,0.36,-1.46,24.22,2.43,-52.16,16907
11.45,-8.49,-9.20,-0.41,1.35,-0.29,24.38,2.00,-50.63,16941
5.93,-7.55,-6.41,-0.78,2.35,0.02,26.69,2.22,-48.49,16975
0.61,-6.06,-13.86,-1.37,3.08,0.57,28.22,2.43,-44.33,17009
1.41,-13.96,-7.20,-0.91,2.95,1.33,31.07,1.02,-41.23,17043
-0.09,-18.27,-7.78,0.37,0.89,0.72,32.81,-0.77,-39.23,17078
6.61,-18.00,-7.50,1.42,-0.22,-1.90,32.78,-1.40,-41.07,17112
-5.22,10.73,4.39,1.90,0.38,-2.76,32.04,1.42,-41.57,17146
-18.05,-4.59,6.11,0.39,-4.87,-2.19,27.52,2.31,-46.71,17180
-34.39,-0.47,-3.96,2.96,-13.79,-1.25,16.76,1.20,-57.66,17214
2.05,-7.25,-14.69,3.20,-16.76,-1.83,-2.76,-1.96,-61.20,17249
38.66,2.90,-31.17,2.23,-9.92,-1.47,-18.85,-6.64,-56.24,17283
-36.78,-37.54,-20.50,0.15,-2.83,0.29,-21.09,-8.87,-56.88,17317
38.75,-7.66,-5.11,-0.56,0.23,-2.62,-24.42,-9.16,-54.98,17351
9.79,-2.26,-10.82,1.07,-2.11,-1.42,-23.40,-10.48,-55.99,17385
5.71,-13.35,1.36,1.78,-0.84,1.60,-24.50,-10.42,-55.07,17419
11.07,-2.06,-8.49,1.64,-0.13,2.01,-24.71,-9.98,-55.39,17454
16.97,-8.71,-1.83,0.95,1.06,1.65,-23.65,-9.21,-55.99,17488
17.81,-4.39,-7.13,0.46,0.95,-0.81,-22.46,-9.62,-56.90,17522
-1.62,-5.84,-8.55,-0.30,0.60,-2.07,-21.53,-11.25,-57.47,17556
-10.41,-13.75,0.47,0.34,0.58,-1.36,-20.48,-12.03,-58.42,17590
-8.44,-7.07,-4.62,0.66,-0.22,-1.19,-20.59,-13.81,-58.33,17625
-8.13,-13.80,2.04,1.03,-0.72,0.09,-20.97,-14.35,-57.78,17659
-0.60,-10.70,-0.19,1.64,-2.42,-0.34,-22.99,-15.64,-56.42,17693
-1.52,-6.15,-7.87,1.95,-3.23,-0.57,-26.48,-18.04,-52.62,17727
3.03,-5.53,-7.67,1.36,-2.37,-0.67,-28.12,-19.82,-50.48,17761
-0.77,-7.35,-3.98,0.84,-1.56,-0.76,-29.45,-21.28,-48.82,17795
2.46,-6.11,-4.69,0.63,-1.35,-0.95,-30.72,-22.36,-46.49,17830
4.20,-9.73,-1.18,0.59,-0.86,-0.99,-30.77,-23.84,-45.31,17864
3.56,-5.94,-2.07,0.37,-0.39,-1.06,-30.37,-25.10,-44.80,17898
7.14,-8.75,-0.89,-0.38,1.35,-0.46,-29.47,-26.03,-46.93,17932
9.63,-9.50,0.33,-0.23,1.42,-0.18,-28.12,-25.84,-49.01,17966
6.30,-12.07,-1.23,-0.15,0.91,0.15,-27.07,-25.72,-49.69,18000
3.13,-16.34,-4.12,1.84,1.56,1.44,-26.64,-25.62,-50.45,18035
-4.56,-18.18,3.55,1.29,8.00,4.64,-22.54,-22.96,-55.67,18069
-2.04,-13.41,-11.90,0.99,9.15,5.07,-14.53,-21.09,-61.33,18103
35.34,3.57,-33.07,-0.90,11.66,2.01,-3.01,-20.56,-63.80,18137
-17.69,-3.17,-2.12,-2.64,12.66,0.45,16.71,-18.04,-60.89,18171
-17.33,-21.61,24.28,-3.32,6.63,-2.37,24.55,-14.64,-56.64,18206
0.75,-5.27,15.25,-1.14,-1.28,-2.25,27.32,-11.66,-54.72,18240
-30.20,-33.29,-12.11,-0.17,-2.76,-1.80,24.99,-9.31,-57.67,18274
-4.09,14.10,7.29,2.14,-0.25,-3.79,20.74,-6.49,-59.63,18308
11.58,-17.87,1.50,-0.13,0.77,-1.81,18.99,-4.91,-59.60,18342
4.91,-29.21,10.54,0.63,1.42,-1.81,20.68,-5.12,-58.81,18376
3.13,-21.86,-11.28,0.60,0.13,0.06,21.29,-5.79,-58.17,18411
7.75,-4.38,-3.98,0.46,0.32,0.38,22.36,-6.31,-58.32,18445
12.29,-1.89,-10.16,0.08,1.12,0.29,23.24,-6.39,-57.70,18479
9.01,-10.35,-9.26,-0.14,1.43,0.70,25.07,-7.41,-56.45,18513
4.36,-21.28,-6.18,0.15,1.50,0.79,27.01,-7.95,-55.19,18547
-12.59,-33.52,-9.75,1.21,0.55,-0.84,28.43,-8.48,-53.93,18582
-12.44,-9.13,-1.88,2.85,-1.52,-6.35,26.16,-5.52,-55.89,18616
-19.54,10.75,0.00,0.65,-10.87,-5.53,13.24,-3.23,-62.83,18650
-21.68,6.10,-3.42,3.70,-9.21,-0.25,-2.53,-6.68,-65.71,18684
-6.21,-9.57,2.21,4.88,-10.32,1.25,-15.27,-11.68,-62.53,18718
31.23,-34.04,39.20,2.19,-8.63,-0.97,-26.86,-15.64,-56.56,18752
18.66,-25.31,-17.46,1.92,-4.29,0.12,-30.87,-18.52,-52.60,18787
13.07,-19.68,-0.38,0.20,0.57,-1.79,-31.28,-18.62,-52.81,18821
-5.25,8.24,-3.03,1.00,-0.44,-1.16,-30.40,-21.05,-52.67,18855
4.20,-12.85,-1.71,1.20,-0.93,0.06,-31.61,-20.84,-50.99,18889
4.35,4.83,-1.19,1.52,-0.16,0.38,-31.89,-21.88,-50.03,18923
12.33,-8.43,-3.22,1.08,-0.38,1.22,-32.13,-20.14,-50.20,18958
4.35,-10.11,-4.74,1.14,0.79,1.11,-31.98,-19.54,-49.78,18992
-2.51,-14.61,2.58,1.35,1.79,2.21,-30.74,-18.37,-51.96,19026
-3.67,-16.76,-1.56,1.95,4.70,3.88,-27.30,-16.35,-55.45,19060
11.98,2.37,-34.44,0.77,8.13,2.85,-20.04,-15.21,-60.45,19094
20.47,2.43,-27.11,-1.24,14.26,1.20,-1.80,-13.21,-64.91,19128
10.98,-2.24,-9.77,-3.84,11.22,-0.35,13.90,-8.51,-61.53,19163
-38.78,-5.47,-10.78,-2.88,12.92,-0.08,28.76,-4.90,-51.61,19197
-6.67,-15.59,14.56,-0.11,-1.93,-1.76,27.95,-3.20,-52.40,19231
-10.53,-10.23,-37.41,0.40,-4.22,-2.24,23.50,-2.15,-55.45,19265
9.76,-12.79,-3.06,0.22,0.64,-3.06,19.88,-0.04,-55.96,19299
6.90,-13.64,-18.77,0.08,-1.64,-1.82,17.23,0.80,-56.81,19333
7.91,-18.80,7.46,-0.01,1.49,-1.09,17.70,0.66,-55.00,19368
0.40,-4.35,0.18,1.24,0.78,-1.70,18.46,0.15,-55.70,19402
-0.32,-15.10,-6.46,-0.32,1.73,0.57,19.03,0.00,-54.84,19436
6.14,-8.43,-5.38,-0.43,2.26,0.96,22.01,-0.77,-52.84,19470
8.10,-6.03,-11.18,0.51,1.03,0.97,22.58,-1.86,-51.97,19504
5.44,-17.68,-7.41,1.63,0.13,1.07,24.58,-4.76,-52.08,19539
0.45,-17.54,-6.84,2.29,-2.51,-0.63,23.02,-6.30,-54.05,19573
-8.94,-10.69,-5.29,2.79,-5.46,-6.70,17.23,-5.96,-58.21,19607
-14.60,4.48,3.38,1.27,-13.05,-4.64,-0.67,-6.28,-61.62,19641
-15.55,2.66,0.67,2.41,-7.66,0.54,-11.22,-8.52,-59.72,19675
-3.85,-15.78,7.17,2.27,-8.87,1.86,-19.64,-10.29,-55.10,19709
6.74,-11.63,4.17,3.07,0.16,0.32,-26.56,-11.88,-51.84,19744
15.89,-35.97,-39.16,0.82,-6.52,-0.02,-29.71,-12.48,-48.22,19778
-17.73,-25.99,3.35,0.18,0.76,-0.38,-29.71,-12.91,-49.85,19812
5.65,-11.39,-9.94,0.42,-1.14,-1.19,-31.18,-14.18,-48.25,19846
0.30,-8.40,-5.39,1.31,-1.01,-0.06,-32.39,-14.53,-47.11,19880
8.06,-9.84,-7.10,1.46,-1.24,0.39,-33.05,-14.64,-45.18,19915
13.31,-6.12,-0.16,1.45,-1.58,-0.57,-33.53,-15.67,-43.17,19949
8.13,-5.43,-10.32,0.70,-1.13,-1.51,-34.00,-17.39,-41.22,19983
1.97,-10.71,-2.51,0.49,0.01,-1.30,-33.50,-18.99,-40.68,20017
-0.87,-6.23,-2.66,0.70,-1.14,-1.90,-33.06,-21.15,-39.75,20051
4.74,-11.32,1.01,0.24,-0.08,-1.05,-33.12,-23.08,-39.04,20085
6.59,-6.57,-4.71,0.32,-0.08,-1.14,-32.58,-24.29,-39.02,20120
-1.98,-13.73,1.03,0.11,1.61,0.53,-31.16,-25.02,-40.89,20154
3.87,-15.32,1.52,0.82,0.83,1.62,-31.66,-23.68,-41.33,20188
5.20,-17.10,1.23,1.50,2.07,2.98,-31.45,-21.59,-42.49,20222
-4.71,-9.81,-3.45,2.45,7.41,5.35,-27.61,-17.66,-49.71,20256
2.77,-3.16,-39.16,1.47,8.21,2.19,-21.73,-16.28,-55.64,20291
-1.03,5.07,-16.05,-0.92,13.74,-0.77,-6.14,-16.33,-61.17,20325
14.41,11.62,-7.11,-3.66,6.75,-0.74,4.08,-13.17,-61.30,20359
-26.51,-28.76,35.70,-4.37,11.93,0.82,15.11,-9.65,-58.21,20393
-39.20,-11.17,14.67,-1.68,1.74,0.37,23.40,-8.99,-54.72,20427
-25.79,-24.56,-39.16,0.18,-5.37,-2.11,18.72,-8.65,-58.23,20461
-22.27,20.30,7.32,0.79,3.62,-4.28,16.53,-6.61,-59.06,20496
27.04,-34.23,-22.69,-0.36,-0.63,-0.66,15.40,-6.71,-59.41,20530
6.44,-16.33,-0.99,-0.03,1.00,-0.46,18.15,-6.80,-58.71,20564
3.40,-9.02,-6.42,0.29,0.76,0.63,19.57,-6.97,-58.35,20598
4.53,-16.01,1.83,1.00,-0.16,1.49,20.34,-9.24,-59.66,20632
8.91,-18.94,2.83,2.51,0.04,1.49,20.34,-11.97,-59.65,20666
-2.61,-11.55,-9.00,2.61,-2.03,-0.18,18.85,-14.59,-60.77,20701
-20.89,-10.69,-24.95,2.58,-6.38,-7.50,12.57,-14.64,-64.12,20735
-12.75,11.08,-10.33,0.73,-8.64,-7.18,-3.08,-13.78,-65.27,20769
-16.60,11.72,6.28,0.69,-4.44,-1.30,-10.71,-14.29,-64.26,20803
-14.72,-9.50,18.66,1.61,-8.41,2.74,-17.80,-15.20,-61.88,20837
21.54,-12.00,2.47,2.08,-7.67,3.54,-29.25,-13.49,-53.54,20872
-39.08,-39.20,-23.28,0.70,-4.32,0.40,-31.96,-13.88,-50.56,20906
-20.21,9.23,1.07,-0.68,3.20,-1.50,-30.87,-15.57,-52.24,20940
10.37,-33.19,-15.10,-0.60,-0.32,0.25,-31.18,-15.07,-51.33,20974
7.31,-12.25,13.86,1.02,1.09,0.08,-28.75,-14.37,-52.94,21008
5.41,-5.41,-8.85,1.20,-0.37,-1.62,-29.39,-17.36,-52.09,21042
-6.09,-14.99,-0.98,0.98,0.03,-0.76,-29.20,-19.00,-52.48,21077
-10.11,-10.92,-2.30,2.03,-2.12,-0.38,-30.30,-20.70,-49.66,21111
0.33,-7.89,-2.57,2.47,-2.94,0.37,-32.49,-21.95,-45.10,21145
3.50,-7.96,-5.28,2.56,-3.87,0.47,-34.35,-22.30,-40.98,21179
6.84,-9.58,-19.05,1.82,-4.89,-0.54,-36.50,-23.05,-33.65,21213
1.46,-1.80,-7.61,0.67,0.33,0.05,-36.55,-23.40,-32.24,21248
3.11,-9.43,0.92,0.39,-0.52,-0.43,-36.44,-24.03,-32.14,21282
4.15,-9.66,-0.91,0.34,0.13,-0.38,-36.20,-24.14,-31.76,21316
1.38,-8.94,-0.23,0.41,0.44,-0.33,-36.36,-24.06,-31.41,21350
1.09,-10.32,-1.34,0.58,0.19,-0.30,-36.38,-24.10,-32.26,21384
-1.74,-10.76,0.62,0.78,0.42,-0.03,-35.98,-24.38,-32.51,21418
-2.31,-13.39,0.92,1.09,0.75,0.14,-36.13,-23.43,-32.80,21453
-4.69,-11.87,-2.47,1.47,0.19,0.45,-36.48,-22.51,-32.71,21487
1.43,-10.17,-2.53,1.66,0.42,0.57,-36.16,-21.31,-32.02,21521
-0.57,-8.58,-10.96,-0.16,0.34,0.25,-36.03,-20.15,-32.94,21555
0.82,-8.10,-4.96,-0.91,1.44,0.32,-34.80,-19.22,-34.36,21589
0.05,-8.79,-3.90,-1.36,1.25,0.12,-33.86,-18.02,-35.66,21624
-1.12,-9.07,-0.37,-1.34,-0.46,-0.32,-32.13,-16.91,-35.78,21658
-2.34,-7.75,0.89,-0.93,-2.12,-0.19,-31.01,-17.01,-34.30,21692
-5.53,-13.27,0.24,-0.75,-3.36,-0.15,-30.74,-17.47,-30.52,21726
7.69,-9.88,6.89,0.33,-4.82,-1.27,-29.45,-19.50,-26.26,21760
6.34,-9.65,2.74,-0.19,-0.90,-0.79,-28.66,-20.89,-25.67,21794
0.90,-6.99,1.35,-0.65,1.36,-0.19,-27.61,-22.27,-26.95,21829
4.88,-10.58,1.19,-0.69,-0.43,-0.01,-26.79,-23.40,-28.09,21863
4.76,-9.29,-4.17,-0.60,0.60,0.37,-26.35,-23.47,-29.00,21897
3.05,-8.65,-2.43,-0.88,1.43,0.43,-26.57,-23.90,-30.46,21931
0.82,-10.85,-0.17,-0.55,1.05,0.15,-26.07,-24.12,-32.32,21965
1.32,-9.90,-0.25,-0.47,0.77,-0.07,-25.74,-24.82,-34.19,22000
0.65,-9.70,-0.25,-0.32,1.14,0.19,-25.58,-25.20,-35.78,22034
-0.07,-11.16,0.11,-0.20,1.31,0.43,-25.68,-25.45,-36.77,22068
1.06,-10.56,-1.33,-0.10,1.42,0.31,-25.90,-24.93,-38.44,22102
-2.95,-10.63,-2.16,0.06,1.70,0.39,-25.11,-25.39,-40.05,22136
-1.09,-9.53,-1.37,0.09,0.94,0.19,-24.89,-25.08,-41.39,22170
-0.50,-9.98,-2.29,0.24,0.75,0.01,-24.54,-25.04,-42.68,22205
-2.07,-9.47,-1.29,0.43,0.18,-0.49,-24.04,-25.93,-43.19,22239
-0.50,-9.66,-2.26,0.55,-0.44,-0.84,-24.54,-26.92,-43.32,22273
-3.43,-9.74,-1.05,0.84,-1.42,-1.19,-24.93,-27.86,-41.99,22307
-1.64,-8.23,-2.10,1.17,-2.05,-0.99,-25.31,-30.12,-40.03,22341
-4.93,-10.63,-2.86,1.32,-2.56,-0.69,-26.76,-31.69,-37.61,22375
-5.06,-12.18,-2.84,1.70,-3.70,-0.57,-27.13,-32.96,-33.98,22410
-3.44,-9.95,-6.71,1.96,-4.62,-0.62,-27.71,-33.92,-27.65,22444
-1.84,-10.41,-10.62,1.94,-5.99,-0.84,-27.51,-35.81,-19.69,22478
1.37,-6.95,-14.71,1.61,-5.28,-0.91,-25.72,-36.76,-13.49,22512
0.98,-9.42,-11.48,1.15,-4.12,-0.58,-24.14,-36.90,-7.47,22546
2.27,-8.45,-6.88,0.54,-2.42,-0.11,-22.11,-37.33,-4.49,22581
-1.02,-10.79,-1.54,0.54,-1.91,0.31,-21.29,-36.85,-2.79,22615
-1.30,-10.20,-0.77,0.93,-2.96,0.36,-19.44,-36.48,0.98,22649
2.75,-10.64,-4.52,1.18,-5.03,-0.18,-16.18,-34.67,4.85,22683
5.14,-6.25,-12.32,1.35,-4.56,-0.45,-11.43,-33.56,8.62,22717
4.48,-9.96,-12.75,0.49,-2.91,-0.19,-7.54,-32.93,10.95,22751
-5.17,-9.82,-3.27,0.70,-3.62,-0.45,-4.27,-32.13,11.98,22786
8.64,-11.84,-7.70,0.83,-4.34,-0.48,1.74,-30.84,13.29,22820
1.67,-8.52,-3.87,0.58,-2.57,-0.16,4.79,-30.28,13.59,22854
1.71,-9.83,-4.56,0.89,-3.68,-0.28,8.94,-29.77,13.62,22888
2.71,-8.18,-7.29,0.80,-3.35,-0.17,13.59,-28.18,12.76,22922
2.55,-7.80,-6.59,0.65,-2.61,-0.16,16.82,-26.89,11.84,22957
2.40,-8.05,-6.15,0.46,-2.22,-0.20,19.01,-26.18,11.03,22991
4.06,-8.76,-4.46,0.32,-2.01,-0.21,21.82,-26.22,9.91,23025
1.08,-9.45,-2.89,0.34,-1.94,-0.34,23.18,-25.75,8.05,23059
2.69,-10.19,-0.65,0.31,-2.20,-0.36,26.41,-24.83,6.65,23093
0.63,-9.34,-1.80,0.53,-2.34,-0.31,28.30,-24.67,4.46,23127
2.29,-10.47,-2.96,0.55,-2.38,-0.21,30.62,-23.78,3.51,23162
1.12,-10.43,-3.06,0.58,-2.27,-0.12,32.78,-22.77,-0.09,23196
2.36,-8.68,-4.17,0.64,-1.62,-0.14,34.33,-22.24,-1.45,23230
2.57,-10.00,-2.06,0.50,-1.16,-0.09,34.73,-22.16,-2.47,23264
1.33,-9.26,-2.44,0.51,-1.11,-0.16,35.66,-21.50,-3.98,23298
1.16,-10.16,-1.54,0.67,-0.95,-0.19,36.36,-21.05,-4.49,23333
-1.08,-10.79,0.21,0.96,-0.75,-0.04,36.16,-20.26,-5.82,23367
-2.36,-11.05,2.90,1.20,-1.42,-0.14,36.73,-19.56,-7.00,23401
0.67,-12.50,-3.36,1.35,-1.53,-0.08,37.07,-19.06,-8.49,23435
-3.16,-11.98,-5.56,1.27,-0.22,0.04,37.39,-18.27,-8.97,23469
-8.60,-16.53,-2.97,1.28,0.25,-0.01,36.73,-18.02,-8.61,23503
4.55,-13.74,-7.14,0.65,1.23,0.52,36.22,-18.01,-7.70,23538
4.06,-9.36,-6.11,0.27,3.25,1.23,34.32,-19.00,-4.27,23572
15.15,-5.13,-9.34,-1.09,4.07,1.00,31.07,-20.86,-0.44,23606
0.66,-6.90,-1.89,-2.34,3.43,1.26,26.78,-24.07,3.19,23640
4.21,-6.72,-0.32,-2.71,2.40,1.10,23.66,-27.26,3.36,23674
6.26,-8.27,-0.68,-3.30,2.01,1.01,20.80,-31.57,3.60,23708
2.20,-11.13,3.01,-3.00,2.45,0.78,18.43,-34.74,2.21,23743
2.00,-10.48,4.18,-1.62,1.67,0.34,15.76,-36.47,1.13,23777
9.14,-24.73,3.21,-1.43,-0.58,-1.25,15.93,-37.90,0.63,23811
-8.86,-12.66,9.64,0.56,0.56,-1.24,16.06,-37.12,1.24,23845
10.51,-9.66,-2.31,0.76,-4.31,-2.63,21.13,-35.66,-0.86,23879
-4.30,-7.77,-1.87,0.62,-0.63,-1.03,23.18,-33.62,-1.20,23914
-4.68,-10.87,-2.33,0.51,-0.31,-0.28,23.44,-33.05,-0.58,23948
-2.90,-10.70,-1.09,0.65,0.60,0.01,23.11,-32.49,-0.77,23982
-1.19,-9.23,-3.44,0.74,0.35,-0.04,22.92,-31.31,-0.25,24016
-1.62,-9.83,-3.20,0.82,0.56,0.05,22.36,-31.29,1.05,24050
-1.16,-9.82,-1.32,0.90,0.50,0.01,21.92,-30.55,2.35,24084
-3.41,-10.21,-1.34,0.97,0.52,-0.17,21.78,-29.42,2.95,24119
-4.87,-11.03,-2.49,1.08,0.51,-0.46,21.32,-28.00,4.46,24153
-5.56,-12.27,-4.38,1.32,1.50,-0.65,20.52,-26.48,5.47,24187
-6.66,-14.86,-7.44,1.53,0.61,-0.83,19.70,-24.73,6.91,24221
0.57,-14.26,-7.51,2.40,0.11,-0.26,20.13,-21.92,7.22,24255
12.20,-6.72,-13.40,1.58,-1.41,-1.45,20.99,-19.00,6.37,24290
1.04,-9.90,-4.48,0.48,-3.46,-1.89,23.75,-18.01,0.12,24324
4.97,-5.91,-5.98,-0.27,-4.57,-1.63,28.47,-16.28,-0.98,24358
4.70,-4.94,-3.62,-1.13,-2.97,-0.32,30.46,-16.38,-3.86,24392
6.03,-5.32,-2.84,-1.59,-1.38,0.75,31.20,-18.23,-7.21,24426
1.32,-6.77,-0.71,-1.90,0.33,1.64,30.56,-20.39,-8.17,24460
0.54,-7.98,0.98,-2.08,-0.10,1.81,29.28,-22.74,-8.64,24495
1.09,-9.77,1.08,-2.24,-1.61,1.72,28.54,-24.25,-12.00,24529
3.63,-10.11,-0.62,-2.00,-1.79,1.69,28.02,-25.64,-14.47,24563
3.12,-10.74,-0.87,-1.59,-0.86,1.62,27.68,-26.50,-15.43,24597
2.83,-11.74,1.64,-0.92,-0.35,1.17,26.64,-26.86,-16.37,24631
3.21,-12.06,2.35,-0.06,-0.52,0.39,26.56,-25.94,-16.97,24666
2.35,-8.90,3.61,0.57,-0.59,-0.07,27.48,-24.95,-17.14,24700
-17.81,-39.20,2.35,0.19,0.04,0.57,27.68,-24.44,-16.21,24734
12.09,-8.14,-11.31,0.44,0.25,-2.11,28.84,-22.27,-17.80,24768
-14.47,-13.67,2.08,0.14,0.85,-0.52,28.66,-21.31,-15.62,24802
-1.50,-13.03,-1.26,0.23,0.87,0.37,29.26,-20.99,-14.88,24836
0.83,-9.88,-2.83,0.45,0.84,0.46,29.52,-21.31,-12.89,24871
2.73,-9.32,-4.76,0.45,0.98,0.55,29.60,-21.75,-12.39,24905
0.69,-7.93,-4.74,0.28,1.04,0.31,29.92,-21.85,-10.00,24939
0.73,-8.51,-4.34,0.22,0.81,0.07,29.76,-22.42,-9.32,24973
-2.57,-9.74,-2.37,0.20,1.09,0.07,29.44,-22.98,-8.13,25007
-4.42,-14.27,-2.46,0.03,2.79,0.23,29.03,-23.27,-4.82,25041
3.71,-6.88,-2.27,0.46,-0.50,-1.06,29.41,-22.19,-4.52,25076
8.31,-4.68,-6.25,0.27,-0.05,-1.38,30.39,-21.65,-4.43,25110
2.77,-7.11,-2.18,-0.02,-0.25,-1.04,30.87,-20.21,-3.90,25144
-4.76,-18.51,-0.13,-0.03,0.31,-0.17,31.07,-20.53,-3.65,25178
-14.12,-15.76,3.97,0.40,0.85,-0.94,30.93,-19.73,-2.79,25212
-21.32,-13.28,0.45,0.85,-0.82,-0.40,31.51,-19.80,-2.89,25247
-12.65,-7.89,1.85,1.59,-3.05,1.85,33.95,-20.48,-4.95,25281
1.93,-6.72,-8.46,1.58,-4.73,0.68,36.61,-22.07,-9.72,25315
7.16,-3.28,-12.11,0.76,-1.76,-0.32,38.50,-22.41,-12.25,25349
9.80,-9.35,-6.86,0.24,-2.06,-1.44,39.11,-21.22,-15.67,25383
4.80,-5.27,-2.77,0.34,-1.03,-1.86,40.12,-19.10,-17.17,25417
-0.22,-11.71,-0.76,0.20,-0.43,-0.56,40.24,-18.11,-17.36,25452
1.27,-11.39,0.97,0.39,0.13,0.70,40.89,-18.59,-17.26,25486
0.40,-11.40,-0.55,0.64,0.67,1.61,40.88,-20.40,-16.15,25520
9.47,-7.40,-9.53,0.60,0.35,1.34,40.09,-22.65,-15.32,25554
2.83,-5.85,-7.68,0.21,0.65,-0.58,40.11,-22.24,-14.21,25588
1.09,-7.73,-7.53,-0.02,-0.50,-2.05,41.07,-20.42,-14.41,25623
-3.86,-12.20,1.11,-0.23,0.28,-2.00,41.41,-17.92,-14.81,25657
2.95,-6.00,0.84,-0.15,-0.37,-1.80,41.80,-15.46,-16.50,25691
2.26,-11.52,-0.72,-0.52,0.69,-0.87,41.82,-14.12,-15.46,25725
0.35,-13.75,-1.41,-0.06,1.02,0.33,41.73,-14.29,-14.05,25759
-3.81,-16.39,0.15,0.66,1.38,1.87,41.32,-17.39,-12.17,25793
-0.65,-18.48,8.38,1.65,3.10,4.91,40.25,-21.59,-8.65,25828
5.03,-8.09,-22.43,2.09,6.55,4.15,34.87,-27.40,-0.75,25862
20.06,1.45,-31.35,-0.19,12.60,0.63,23.46,-28.27,9.87,25896
3.37,5.05,-15.33,-2.52,12.37,0.34,7.42,-31.69,13.29,25930
3.71,-1.48,3.40,-3.01,11.02,0.11,-6.88,-36.60,9.78,25964
-21.96,-7.23,15.57,-2.04,4.14,0.30,-14.82,-39.17,4.62,25999
30.98,1.53,-9.53,0.06,-2.28,-4.18,-10.25,-41.77,5.64,26033
-4.24,-6.76,-11.27,0.79,-0.82,-2.06,-7.35,-42.72,5.77,26067
4.46,-13.66,5.61,0.27,1.28,-0.23,-6.90,-42.87,5.79,26101
9.09,-3.65,-9.57,1.31,-1.09,-1.57,-5.63,-42.30,6.52,26135
8.17,-8.47,-1.81,0.73,1.94,-0.66,-5.89,-41.23,6.83,26169
4.45,-6.18,-8.83,-0.14,2.64,-0.91,-7.63,-41.06,5.20,26204
-2.69,-7.96,-7.68,-0.99,2.21,-0.03,-9.12,-41.80,3.65,26238
6.33,-12.45,-7.36,-1.20,2.23,0.75,-11.53,-42.25,1.18,26272
8.66,-14.35,-3.11,-0.30,1.84,1.13,-14.31,-41.55,-0.67,26306
-4.07,-23.27,-10.10,1.02,1.15,1.07,-16.44,-40.15,-1.62,26340
-13.85,-24.35,-10.97,1.90,-0.15,-0.79,-17.00,-38.22,0.04,26375
-5.86,-7.45,-6.33,3.01,-2.99,-5.45,-11.44,-37.28,3.20,26409
-16.55,3.15,7.38,1.62,-9.41,-5.50,0.63,-37.08,6.87,26443
-24.11,9.86,-6.04,3.50,-11.65,-0.84,15.61,-33.48,5.60,26477
-10.45,-9.61,-2.34,4.58,-11.96,0.84,25.23,-30.21,0.38,26511
39.16,3.70,-38.83,3.02,-9.61,0.27,32.23,-28.94,-9.32,26545
4.98,-10.52,-25.88,1.44,-4.20,0.17,33.48,-27.04,-10.26,26580
-5.04,-15.40,-15.04,-0.39,0.74,-0.43,34.14,-26.75,-10.80,26614
-6.79,-7.79,2.54,0.68,-0.96,-1.03,34.41,-25.15,-12.00,26648
0.84,-13.47,-0.42,1.43,-2.92,-0.17,35.31,-23.90,-13.96,26682
12.14,-3.05,-7.47,1.56,-3.58,-1.19,36.73,-22.62,-18.37,26716
13.02,-8.35,-9.82,1.08,-1.49,-0.84,38.15,-20.30,-20.32,26750
12.46,-6.23,-4.68,0.01,0.44,-0.98,37.90,-19.07,-19.70,26785
5.09,-11.30,-3.48,-0.20,1.26,-0.75,37.49,-18.15,-17.76,26819
1.81,-12.62,-4.82,0.11,1.93,0.48,37.94,-18.53,-15.74,26853
-5.85,-13.63,-6.25,0.85,4.18,2.94,36.67,-21.16,-10.67,26887
-11.90,-15.93,8.67,1.47,4.86,5.22,32.32,-26.25,-3.93,26921
9.75,-13.54,-12.46,1.31,9.51,5.63,23.91,-29.68,3.86,26956
8.43,5.12,-23.87,0.08,13.35,1.34,10.89,-31.35,9.41,26990
10.85,0.07,-1.86,-1.39,9.31,0.34,-5.26,-33.09,7.95,27024
-25.83,-8.27,-5.54,-1.26,10.19,-0.16,-14.86,-35.09,2.70,27058
0.02,-10.76,14.37,-0.17,-0.62,-1.61,-15.17,-36.23,1.65,27092
-22.52,-9.59,-19.78,0.55,-3.74,-2.52,-11.08,-37.69,2.73,27126
-11.02,0.74,2.09,2.11,2.08,-2.07,-7.07,-38.12,4.17,27161
4.80,-15.12,-8.02,-0.35,-0.94,-2.09,-4.40,-38.47,4.37,27195
1.28,-18.99,9.15,1.29,1.78,-1.00,-6.21,-36.96,4.74,27229
0.69,-10.77,-6.35,0.67,0.61,0.03,-6.61,-36.19,4.60,27263
3.15,-5.17,-2.83,0.52,1.28,0.73,-8.05,-35.03,4.40,27297
6.29,-9.03,-6.89,0.55,1.24,0.92,-10.35,-34.30,5.01,27332
0.86,-14.83,-1.62,1.73,0.07,1.46,-11.71,-32.20,5.41,27366
2.55,-16.58,2.95,2.43,-1.00,1.98,-12.20,-28.66,7.75,27400
6.01,-9.03,-11.53,2.10,-5.93,-1.59,-8.37,-25.87,10.19,27434
-9.10,-18.63,-22.12,0.31,-7.29,-7.00,3.58,-25.49,12.47,27468
-21.58,5.04,-9.15,-0.16,-7.95,-5.33,13.71,-23.72,10.27,27502
-27.54,-4.58,10.73,1.43,-6.93,1.05,21.08,-23.25,5.85,27537
-7.59,-16.73,19.85,1.36,-9.50,2.46,29.76,-23.34,-2.03,27571
25.22,-14.65,32.51,2.13,-3.02,0.34,33.60,-22.67,-6.23,27605
29.19,-7.50,-23.90,1.00,-1.32,-3.10,36.55,-18.91,-8.59,27639
4.04,-6.17,-14.16,0.57,-2.02,-2.15,36.54,-16.72,-9.66,27673
-2.05,-10.68,-6.98,0.57,-1.03,-1.15,37.36,-14.16,-10.73,27708
-2.10,-12.21,0.06,1.01,-1.23,-0.19,38.61,-12.74,-11.98,27742
0.22,-21.91,9.27,1.68,1.28,1.98,38.21,-14.60,-10.96,27776
-4.78,-16.94,1.21,1.72,5.39,2.70,37.40,-17.28,-4.50,27810
6.21,3.63,-13.57,0.48,8.72,4.51,30.88,-21.79,5.42,27844
10.80,16.91,-27.76,-3.50,13.16,4.14,15.11,-27.77,12.42,27878
3.92,8.52,8.76,-3.63,10.75,0.61,1.15,-34.79,10.48,27913
-38.07,-36.72,1.87,2.11,1.47,-3.25,-3.35,-35.53,11.17,27947
-39.20,-2.70,-19.99,1.93,3.45,-2.52,0.48,-33.47,12.34,27981
-4.22,-19.20,8.65,0.25,2.92,0.04,0.69,-33.63,11.90,28015
6.00,-9.83,-2.03,0.97,0.29,-0.49,-1.02,-32.48,12.99,28049
-7.79,-17.56,-0.95,1.16,1.93,1.56,-4.93,-31.03,12.67,28083
-4.05,-15.03,2.69,2.09,0.96,3.04,-7.57,-27.17,13.97,28118
22.39,-11.56,-9.67,2.94,0.09,3.12,-8.96,-23.15,14.29,28152
-15.32,-15.71,-8.62,2.40,1.67,-0.63,-13.01,-18.78,14.63,28186
-17.14,-0.66,-10.13,1.81,-1.61,-3.00,-12.23,-17.30,15.08,28220
-19.48,-0.58,-14.45,2.26,-7.11,-2.55,-4.74,-16.60,18.27,28254
-11.43,-9.28,-9.65,2.27,-8.54,-1.73,8.71,-13.53,17.20,28289
0.37,-14.53,-9.84,1.23,-6.55,0.51,18.11,-12.45,14.97,28323
-2.78,-16.39,-12.71,0.89,-0.27,4.06,20.02,-14.83,14.28,28357
-12.74,-30.25,5.57,0.22,1.59,4.71,18.23,-18.08,14.37,28391
-6.49,-11.47,-5.80,-0.03,-2.42,3.89,18.72,-19.09,12.12,28425
21.58,-7.22,-13.04,-1.37,5.87,5.64,14.35,-23.82,13.39,28459
12.60,-5.24,-7.09,-2.96,11.01,3.82,0.61,-27.05,13.71,28494
1.26,-10.62,-5.39,-3.42,12.65,1.80,-15.54,-30.69,5.70,28528
-1.69,-13.66,7.49,-1.82,8.85,-0.81,-27.07,-32.75,-3.73,28562
14.17,-33.77,-18.55,-1.13,2.52,-3.00,-28.68,-36.16,-8.87,28596
-2.73,-11.31,9.83,1.60,-5.82,-3.47,-23.47,-38.92,-2.88,28630
-29.49,-14.21,-39.11,2.27,-5.29,-2.26,-16.47,-39.33,2.09,28665
0.19,-9.14,2.06,0.22,1.90,-3.74,-11.27,-40.54,3.13,28699
-1.86,-12.53,-3.57,-0.11,0.73,-1.65,-11.25,-41.16,2.12,28733
2.57,-10.57,4.26,0.34,2.87,-0.60,-11.96,-40.81,1.56,28767
4.57,-4.26,-4.78,0.45,2.12,-0.74,-13.69,-40.79,0.25,28801
7.22,-10.28,-7.56,-0.34,3.04,0.91,-16.54,-40.57,-2.21,28835
5.61,-14.10,-7.26,0.34,2.01,1.28,-18.90,-39.59,-2.92,28870
1.58,-11.24,-11.16,1.80,-0.17,0.67,-19.70,-37.04,-2.43,28904
-4.43,-21.44,-11.88,2.72,-3.30,-3.41,-17.98,-35.65,1.59,28938
-4.88,0.27,-3.90,3.59,-5.66,-6.72,-9.76,-35.88,6.66,28972
-15.25,12.65,6.44,1.64,-9.86,-2.73,6.28,-34.32,8.39,29006
-24.72,-12.52,10.76,1.93,-8.26,1.80,14.07,-32.64,7.06,29041
10.20,-7.84,-3.87,2.28,-12.06,0.22,26.59,-30.74,-0.92,29075
1.95,-7.03,-23.02,2.18,1.30,-0.89,30.11,-28.66,-3.54,29109
36.08,-7.42,-3.75,0.49,-2.77,-4.21,32.49,-25.23,-4.95,29143
8.89,-6.93,-6.21,0.94,-1.01,-2.24,32.55,-22.30,-3.11,29177
11.85,-15.73,5.32,0.91,0.17,-0.30,33.34,-21.69,-2.59,29211
7.69,-11.23,1.55,1.48,-0.49,-0.30,33.56,-20.13,-2.40,29246
-1.25,-18.40,1.63,2.27,-0.30,1.32,34.42,-19.75,-2.15,29280
-5.30,-20.42,4.22,2.80,0.91,2.73,33.48,-20.11,-0.56,29314
-7.13,-14.07,0.55,3.16,2.71,3.56,31.01,-21.78,3.17,29348
11.09,5.14,-31.05,2.33,3.09,3.24,27.14,-23.22,6.07,29382
-0.77,6.10,-12.73,-0.16,9.07,1.26,19.07,-24.10,12.04,29416
25.27,7.40,-15.75,-2.90,5.66,2.21,8.54,-28.71,13.74,29451
9.81,-4.94,-10.31,-3.28,13.77,0.97,-5.80,-33.53,10.83,29485
-39.20,-22.29,37.73,-1.69,11.67,-3.61,-19.18,-37.61,3.46,29519
39.16,-39.20,-28.09,-0.99,-8.55,-4.44,-9.79,-41.29,5.61,29553
-11.24,-1.46,7.73,0.10,1.99,-2.91,-8.65,-42.90,4.31,29587
8.60,-14.23,-0.04,-0.23,1.45,-0.70,-8.56,-43.70,3.33,29622
15.71,-7.62,-8.67,0.07,1.56,-0.83,-9.59,-43.72,1.36,29656
10.50,-7.91,-8.54,0.20,1.28,0.15,-10.58,-43.79,1.37,29690
1.32,-23.05,-9.18,0.44,0.76,-0.16,-11.63,-42.33,0.64,29724
-18.70,-27.85,-16.65,1.75,-0.71,-2.96,-11.18,-41.61,1.99,29758
-20.01,-15.52,3.62,2.44,0.89,-5.70,-6.12,-40.40,4.87,29792
-27.40,-1.49,10.22,0.03,-9.54,-3.20,4.43,-40.79,5.80,29827
-13.14,-3.43,-7.10,3.10,-10.87,1.11,15.11,-38.02,4.81,29861
-2.90,-10.80,5.26,3.41,-9.90,1.25,24.31,-35.52,-0.07,29895
26.70,5.01,5.12,2.63,-1.75,-0.43,29.26,-34.08,-2.65,29929
28.46,-19.09,-3.83,-1.14,-1.42,-1.42,33.66,-34.39,-3.95,29963
-20.31,-5.93,-0.25,-0.45,4.05,-0.21,27.40,-34.96,-1.02,29998
-0.18,-19.40,6.73,0.21,1.59,-0.00,26.92,-34.55,-0.76,30032
7.82,-5.61,0.11,1.32,0.05,0.18,26.73,-33.69,1.65,30066
11.57,-13.01,1.25,1.36,0.04,0.91,26.10,-32.77,2.28,30100
10.64,-9.39,-7.42,1.66,-1.32,-1.06,26.60,-31.58,1.93,30134
-0.38,-4.43,-5.41,1.50,-0.05,-1.71,27.96,-28.50,1.86,30168
-1.48,-7.73,-7.10,2.14,-1.96,-1.40,30.14,-25.21,2.21,30203
-0.06,-6.99,-0.65,1.89,-2.59,-1.08,32.58,-22.92,-0.53,30237
4.07,-2.76,-2.34,1.93,-3.45,-1.47,34.43,-20.32,-3.00,30271
-2.05,-7.10,-9.66,0.08,0.81,-0.63,35.14,-19.13,-4.03,30305
-3.37,-15.76,-2.50,0.25,0.69,0.72,35.12,-19.39,-3.43,30339
-3.21,-19.80,4.83,0.81,1.23,2.04,33.62,-20.49,-2.03,30374
-5.13,-15.35,-0.67,1.58,3.80,2.86,30.20,-22.16,2.67,30408
-4.98,-9.56,-7.59,1.55,7.00,3.58,23.14,-23.74,8.80,30442
23.15,4.02,-18.98,0.22,10.36,3.78,11.12,-24.96,12.86,30476
8.58,-1.74,-6.68,-3.23,9.39,0.85,-6.28,-27.86,10.48,30510
8.80,-9.98,20.33,-4.76,8.34,-0.52,-14.72,-31.42,4.59,30544
-36.90,-27.62,10.92,-2.41,3.42,-0.24,-23.85,-32.48,-3.45,30579
-4.10,-11.34,10.92,0.19,-1.00,-3.69,-20.58,-34.83,-2.86,30613
-16.14,-10.50,-0.76,0.60,-0.58,-1.23,-20.24,-35.22,-1.67,30647
-3.49,-16.70,8.81,1.20,-1.11,0.11,-18.61,-34.60,0.69,30681
9.41,-6.69,-2.79,1.50,-2.28,-0.40,-16.68,-34.04,3.07,30715
7.44,-7.12,-4.58,0.94,-0.17,-0.34,-16.05,-32.89,3.45,30750
1.04,-2.15,-9.34,0.71,1.56,-1.12,-17.23,-32.11,3.62,30784
-1.67,-6.42,-14.41,-0.56,1.84,-0.31,-18.30,-32.59,2.43,30818
0.02,-13.48,-2.83,0.02,2.32,1.34,-21.10,-31.42,-0.34,30852
9.09,-14.54,4.86,1.41,0.51,1.86,-23.47,-29.17,-0.03,30886
12.21,-12.84,-5.94,1.57,-0.74,1.04,-24.19,-26.82,1.40,30920
-12.55,-19.46,-24.32,0.38,-2.97,-4.57,-20.74,-28.60,4.11,30955
-18.12,-14.04,-13.58,-0.08,-7.14,-8.95,-10.11,-33.28,7.97,30989
-7.43,9.82,5.72,-0.45,-8.34,-5.78,4.03,-35.08,9.00,31023
-21.49,-2.01,19.57,1.08,-6.42,1.50,12.29,-33.85,8.93,31057
6.02,-25.34,5.00,1.15,-9.36,2.48,19.69,-34.23,5.41,31091
32.29,-25.48,-5.25,1.42,-4.80,-0.66,24.90,-31.42,4.78,31125
39.16,-39.20,-32.01,0.58,-4.26,-2.50,30.80,-28.98,1.90,31160
-7.82,-5.42,-12.20,-0.03,-0.35,-0.44,30.72,-27.80,3.27,31194
15.36,-10.92,12.24,1.02,-0.51,0.29,32.46,-27.78,3.58,31228
12.29,-2.65,-4.74,2.15,-2.15,-1.65,34.98,-25.71,1.87,31262
5.22,-2.01,-11.37,1.39,-1.21,-1.59,36.93,-22.48,0.32,31296
7.41,-9.80,1.23,0.38,-0.02,-0.90,37.85,-21.54,0.91,31331
1.36,-10.60,-1.68,0.79,0.72,-0.22,37.78,-20.89,1.99,31365
0.88,-15.00,-2.04,1.35,0.51,0.70,37.09,-20.40,2.65,31399
-4.39,-18.01,1.18,2.44,0.91,1.98,35.95,-20.94,4.03,31433
-2.69,-21.27,-3.77,2.61,2.57,3.12,33.34,-22.14,7.61,31467
1.91,-1.46,-27.90,1.14,5.51,1.73,26.57,-23.52,12.63,31501
-6.84,6.29,-17.38,-3.20,11.98,2.07,12.72,-26.47,17.42,31536
12.45,2.42,-13.07,-4.84,8.57,2.35,-3.71,-34.55,14.05,31570
-2.74,-5.35,-1.01,-3.51,9.98,1.11,-16.31,-39.26,5.60,31604
-39.20,-25.88,12.59,-1.55,1.46,-0.68,-22.48,-41.86,-2.67,31638
-8.37,-37.49,-24.32,-0.56,-4.62,-3.70,-15.33,-44.61,-0.22,31672
-13.12,-22.24,7.80,-0.04,1.03,-1.23,-14.22,-45.86,-2.03,31707
-3.80,-21.10,10.95,1.25,0.62,-0.45,-13.56,-45.73,-0.44,31741
-3.84,-3.13,-0.23,2.33,-1.52,-1.16,-11.75,-43.83,1.70,31775
5.86,-3.49,-3.56,1.22,0.35,0.74,-9.89,-42.47,2.95,31809
12.63,-8.55,-4.52,0.83,-0.55,0.08,-10.48,-40.88,4.44,31843
-0.89,-13.22,-3.33,0.82,1.80,0.67,-11.88,-39.64,3.71,31877
-0.76,-12.41,-2.13,1.58,-1.05,0.60,-12.51,-37.93,4.60,31912
1.70,-14.24,-6.90,1.98,-3.67,0.19,-9.43,-35.50,8.14,31946
-29.14,-20.38,-11.66,0.49,-9.14,-3.22,0.06,-34.46,9.37,31980
-7.91,-6.14,-13.52,-0.81,-6.87,-3.62,14.54,-34.03,6.62,32014
-15.83,-2.23,4.56,-0.53,-2.52,-0.40,18.75,-33.91,4.49,32048
-17.63,-7.73,8.10,0.60,-6.05,2.15,20.83,-35.08,1.59,32083
5.87,1.77,-4.53,1.42,-8.32,1.38,26.28,-35.17,-4.53,32117
-3.78,-39.20,1.93,0.73,-3.13,-2.86,30.99,-33.34,-7.83,32151
-8.21,-9.35,-2.48,1.20,-1.41,-0.11,31.31,-30.94,-7.88,32185
4.93,-6.63,0.42,1.48,-1.45,2.38,30.20,-32.32,-8.23,32219
18.52,-9.31,-14.81,2.07,-4.45,0.26,31.51,-31.67,-10.68,32253
9.98,-6.95,-19.39,0.37,-0.67,-2.14,33.59,-29.93,-12.60,32288
-6.79,-12.30,-2.27,0.48,0.69,-1.51,33.95,-27.89,-11.98,32322
0.10,-10.39,12.39,1.39,-1.89,-0.38,34.13,-26.85,-13.01,32356
3.05,-16.69,11.76,0.64,-1.95,-0.00,35.00,-26.41,-15.04,32390
-0.77,-16.38,-3.63,0.76,-0.50,1.20,35.18,-26.79,-14.09,32424
-4.46,-9.38,-7.02,1.08,4.35,1.85,33.82,-27.67,-10.23,32458
-6.22,-2.57,-20.17,0.36,6.71,3.11,28.33,-30.56,-3.81,32493
-6.90,-5.17,-9.30,-0.02,11.11,3.62,18.56,-32.74,3.60,32527
-0.62,-5.50,-4.53,-1.00,8.06,2.97,5.22,-34.45,6.66,32561
4.75,-6.62,-5.70,-1.00,8.20,2.71,-4.49,-35.11,5.79,32595
-0.78,-9.02,-2.52,-0.76,7.70,1.53,-13.65,-35.28,1.42,32629
-3.28,-11.75,1.52,-0.15,5.08,-0.12,-20.29,-34.74,-3.46,32664
-3.50,-12.35,1.14,0.85,2.52,-1.40,-21.94,-34.87,-4.40,32698
-1.19,-11.38,0.59,1.51,-0.65,-2.81,-20.07,-35.62,-3.36,32732
-5.67,-24.35,-4.16,1.74,-4.06,-3.60,-15.17,-37.53,0.34,32766
2.28,-1.41,-5.24,0.58,-0.68,-3.62,-8.90,-38.66,2.46,32800
-8.18,-9.58,5.86,-0.22,1.67,-1.69,-8.30,-40.00,1.23,32834
3.72,-15.34,-2.91,0.47,0.88,-1.29,-7.86,-40.16,1.39,32869
0.69,-7.27,-1.24,1.09,1.20,-1.72,-7.66,-40.43,2.10,32903
3.40,-9.27,-10.37,0.55,0.90,-0.84,-7.25,-39.81,2.37,32937
5.71,-8.18,-5.49,0.11,2.05,-0.79,-8.24,-40.11,1.67,32971
1.35,-6.45,-7.41,-0.27,2.61,-0.32,-10.32,-40.22,0.23,33005
-1.09,-4.20,-5.99,-0.43,2.61,0.02,-12.03,-40.70,-1.34,33040
10.71,-12.19,-4.68,-0.41,1.31,0.72,-13.69,-40.79,-3.14,33074
12.08,-11.08,-9.77,0.48,1.16,0.53,-15.21,-39.92,-4.34,33108
2.17,-20.18,-6.72,0.97,0.56,0.43,-16.52,-38.60,-3.76,33142
-3.13,-25.55,-6.97,1.82,-1.11,-2.41,-15.59,-37.02,-1.33,33176
0.41,5.19,-19.30,2.36,-3.06,-4.56,-11.44,-37.20,1.40,33210
-17.63,-5.91,9.67,1.36,-9.19,-3.15,-2.05,-36.41,4.82,33245
-16.26,-0.54,-4.21,2.80,-10.97,0.51,10.13,-33.72,6.02,33279
2.46,-3.97,-3.37,3.17,-10.42,0.86,19.28,-31.10,2.43,33313
1.08,2.65,-1.82,2.86,-3.59,-0.55,25.07,-28.69,-0.25,33347
-23.57,-31.03,-29.03,0.94,-2.66,0.82,27.80,-27.92,-2.78,33381
34.18,-14.28,10.94,-0.43,0.49,-1.64,28.62,-27.26,-2.88,33416
-5.20,-8.73,-10.71,0.82,-1.45,-2.31,29.86,-23.87,-1.68,33450
2.53,-18.65,7.25,1.62,-0.76,-0.23,30.66,-22.81,-1.70,33484
5.58,-7.86,1.04,2.31,-2.43,-0.74,32.78,-20.13,-2.85,33518
8.57,-4.93,-11.15,1.84,-2.12,-0.11,35.09,-18.50,-5.01,33552
15.78,-0.49,-6.99,0.30,0.73,-0.38,36.16,-17.60,-5.00,33586
7.05,-10.12,-6.22,0.20,1.41,-0.30,35.02,-17.25,-3.39,33621
0.69,-14.91,-1.28,0.99,1.86,0.54,33.67,-17.13,-1.23,33655
-2.91,-19.19,2.50,1.22,2.18,1.62,32.29,-17.45,1.62,33689
-8.47,-15.40,-3.61,1.32,5.92,3.28,26.48,-19.63,8.10,33723
-10.93,-9.23,-17.54,0.85,9.38,3.68,17.23,-21.10,12.82,33757
18.32,-3.44,-16.73,0.56,9.62,3.15,4.30,-21.19,15.64,33791
5.11,-2.33,-5.57,-2.48,7.87,1.49,-10.26,-23.41,12.76,33826
15.32,-3.35,-2.61,-2.62,4.84,-0.12,-17.10,-26.66,10.16,33860
30.09,-5.92,-15.02,-1.50,6.35,-1.95,-22.79,-31.31,3.99,33894
-29.22,-25.63,13.08,0.67,-4.80,-4.04,-19.56,-34.58,6.72,33928
-13.72,-4.08,14.19,-0.27,3.49,-3.51,-14.35,-37.99,7.16,33962
5.21,-25.00,-7.01,-0.32,-0.25,-2.16,-13.26,-40.32,6.68,33997
5.41,-18.58,5.64,-0.03,1.31,-0.59,-13.83,-41.48,5.92,34031
-0.28,-14.37,-1.29,0.30,1.23,0.48,-15.49,-41.13,4.98,34065
2.49,-15.54,-0.41,0.83,1.06,1.66,-18.20,-39.46,4.88,34099
3.02,-17.02,-3.48,2.17,0.40,1.69,-20.67,-36.60,5.22,34133
-11.73,-21.30,-9.47,2.87,-0.76,1.11,-21.22,-32.58,7.23,34167
-2.87,-15.50,-11.70,2.66,-4.15,-4.96,-14.94,-31.98,11.15,34202
-9.37,1.24,-10.46,0.73,-12.44,-6.71,1.84,-33.00,14.10,34236
-10.78,9.24,-2.86,1.89,-7.70,-1.26,16.78,-30.59,11.74,34270
-24.90,-9.43,9.37,2.05,-8.36,1.91,23.56,-29.82,7.18,34304
39.16,-13.46,12.56,0.95,-12.70,0.66,32.86,-30.56,-2.28,34338
-9.72,-32.39,-14.25,1.48,-5.63,-0.44,34.24,-29.42,-5.28,34373
-5.83,2.15,-14.80,0.71,1.69,-2.13,36.12,-25.71,-6.64,34407
-0.85,-6.47,-18.54,1.11,-2.31,-1.20,35.88,-23.40,-8.01,34441
5.55,-14.56,2.23,0.84,-0.39,-0.77,36.07,-21.63,-9.54,34475
-1.37,-19.41,7.25,1.92,-0.24,0.16,36.58,-20.08,-9.05,34509
-2.70,-21.34,4.79,2.06,0.48,1.25,35.78,-19.75,-8.32,34543
-10.63,-19.30,1.72,2.61,3.19,3.27,33.69,-20.10,-4.66,34578
-6.69,-12.27,-21.05,2.21,5.86,4.44,28.02,-22.08,0.95,34612
37.26,13.15,-39.10,0.25,7.33,1.62,21.60,-22.49,6.62,34646
26.54,6.36,-7.09,-2.88,5.09,0.78,14.53,-24.54,8.39,34680
35.38,3.03,4.26,-4.12,5.22,-0.58,7.99,-27.78,8.37,34714
-39.15,-39.20,39.20,-2.59,8.11,0.01,1.86,-29.61,8.17,34749
-26.36,-29.28,6.61,0.18,1.89,-4.10,8.02,-28.56,9.08,34783
-8.85,-25.59,3.61,-0.36,2.15,-2.11,7.80,-27.20,10.06,34817
4.21,-9.31,5.20,0.98,0.43,-1.68,7.44,-26.48,10.46,34851
9.26,-10.91,3.02,1.28,0.98,-0.21,6.28,-24.17,11.75,34885
15.91,-12.64,-0.75,1.75,0.73,0.43,5.39,-22.77,12.15,34919
12.82,-17.47,-5.26,2.42,2.49,0.87,3.10,-20.24,13.10,34954
-3.83,-24.87,-14.64,2.47,3.74,-0.04,-2.51,-16.52,13.69,34988
-10.20,-13.95,-15.03,2.86,1.96,-2.40,-5.76,-13.74,13.50,35022
8.89,-11.78,-25.67,2.99,0.57,-5.63,-7.76,-10.73,14.69,35056
-7.39,-23.29,-12.34,0.53,0.34,-7.16,-8.36,-12.64,14.81,35090
-8.00,-18.85,-2.35,1.84,-0.43,-6.46,-7.16,-12.55,15.76,35125
-1.45,-6.42,-3.23,1.32,-4.07,-4.98,-2.70,-11.58,17.28,35159
9.52,-4.78,-5.25,-0.17,-3.25,-3.04,2.54,-11.69,18.39,35193
5.83,0.94,2.07,0.16,-1.50,-0.52,5.69,-11.37,17.30,35227
-0.80,2.51,6.39,0.72,-1.08,1.56,8.29,-10.83,18.31,35261
1.85,2.17,7.01,0.82,-2.00,2.73,11.41,-10.83,17.85,35295
5.79,-1.24,7.84,1.25,-2.53,3.88,16.41,-11.22,16.34,35330
11.69,-1.37,4.12,1.66,-2.55,4.33,20.23,-11.65,14.73,35364
22.77,-0.02,2.68,1.95,-1.48,4.01,23.41,-12.89,13.71,35398
9.84,-10.38,-2.99,2.05,0.19,3.14,23.81,-13.46,13.48,35432
9.33,-39.20,2.19,-0.68,-0.84,1.80,23.91,-13.84,13.68,35466
4.58,-9.80,-0.98,2.38,-1.41,1.78,23.84,-13.11,12.73,35500
5.67,-5.48,-7.84,1.48,-3.98,0.39,27.80,-12.36,9.32,35535
5.32,0.33,-8.39,1.57,-2.38,0.53,30.99,-11.93,5.99,35569
7.56,-15.06,-2.31,-0.31,0.27,1.30,30.56,-13.40,6.04,35603
3.71,-3.55,-4.68,-0.05,2.01,1.70,27.73,-14.92,7.60,35637
4.89,-5.42,-3.77,-0.99,2.64,1.99,24.79,-17.38,8.99,35671
4.51,-7.19,-0.90,-1.68,4.08,2.34,18.75,-21.12,11.34,35706
3.95,-8.16,-0.34,-2.15,4.40,2.21,12.66,-23.55,12.50,35740
2.84,-7.53,-2.39,-2.16,4.43,1.90,5.04,-26.41,12.82,35774
-0.71,-14.74,6.89,-0.47,4.51,0.60,-1.80,-27.01,11.84,35808
0.26,-11.27,6.16,0.32,1.92,-1.08,-4.33,-26.34,12.69,35842
12.07,-18.63,8.34,0.69,-0.09,-2.18,-4.28,-25.49,13.81,35876
7.35,-5.32,-0.59,1.57,0.47,-2.28,-3.41,-24.64,14.19,35911
1.57,-9.04,-2.53,1.00,-0.12,-2.52,-3.10,-24.06,15.17,35945
4.58,-5.97,-2.48,0.45,-0.42,-2.57,-0.91,-24.06,16.19,35979
5.80,-12.28,-2.33,0.20,0.82,-2.14,-0.88,-24.45,16.09,36013
4.99,-9.88,-2.25,-0.84,2.22,-1.40,-2.85,-26.03,16.34,36047
1.90,-8.77,-4.93,-1.11,2.69,-1.09,-5.61,-28.28,14.94,36082
1.91,-11.11,-2.97,-1.30,3.04,-0.97,-8.52,-30.88,13.30,36116
4.56,-15.22,-2.03,-1.58,2.39,-1.21,-11.25,-33.48,11.50,36150
4.15,-11.42,-3.17,-1.53,1.78,-1.31,-11.90,-36.47,9.05,36184
3.49,-12.21,-3.51,-1.64,1.75,-1.29,-12.29,-39.04,5.85,36218
4.06,-10.21,-1.77,-1.60,1.88,-1.28,-12.60,-41.36,3.07,36252
4.42,-14.83,-2.30,-2.07,1.65,-1.20,-11.84,-43.10,-0.69,36287
2.93,-13.61,-3.36,-1.98,1.53,-1.20,-12.00,-44.36,-3.67,36321
3.39,-14.76,-2.15,-2.06,0.95,-1.26,-11.65,-45.13,-7.03,36355
2.01,-11.81,-3.32,-2.11,0.58,-1.22,-11.02,-45.91,-9.87,36389
3.60,-12.45,-4.44,-2.35,0.70,-0.81,-10.98,-46.84,-13.04,36423
1.72,-14.15,-3.17,-2.45,1.88,-0.21,-11.62,-47.65,-15.62,36458
0.63,-14.87,-1.53,-2.69,1.59,-0.04,-12.70,-47.72,-21.24,36492
2.13,-16.14,-0.38,-2.93,1.47,0.00,-13.07,-48.22,-24.10,36526
2.58,-15.92,0.44,-2.98,1.61,-0.05,-13.46,-48.06,-27.84,36560
1.34,-14.70,1.13,-2.82,2.11,0.02,-13.20,-48.07,-32.34,36594
1.13,-13.60,2.33,-2.51,2.12,0.11,-12.51,-47.41,-36.69,36628
0.76,-12.16,3.47,-2.15,1.99,0.23,-11.05,-46.52,-40.02,36663
2.00,-11.66,3.29,-1.85,1.39,0.30,-10.39,-46.00,-42.58,36697
2.93,-10.21,2.21,-1.56,1.09,0.49,-10.16,-45.12,-44.72,36731
4.92,-10.69,1.61,-1.42,1.05,0.63,-9.62,-44.23,-47.49,36765
3.99,-10.72,1.14,-1.11,1.05,0.63,-9.00,-43.23,-49.14,36799
