ax,ay,az,gx,gy,gz,mx,my,mz,timestamp
0.42,-9.79,-0.28,0.15,-0.15,-0.12,-37.42,-19.96,-10.46,82908645
0.34,-9.74,-0.49,0.11,-0.17,-0.06,-37.24,-20.40,-10.11,82908679
0.45,-9.84,-0.44,0.05,-0.13,-0.08,-37.26,-20.74,-10.29,82908713
0.49,-9.72,-0.29,0.02,-0.16,-0.09,-37.45,-21.50,-10.35,82908748
0.44,-9.71,-0.12,0.03,-0.03,-0.14,-37.01,-21.38,-9.79,82908782
0.27,-9.75,0.04,0.06,-0.08,-0.08,-36.38,-21.41,-10.51,82908816
0.39,-9.73,-0.00,0.01,-0.18,0.07,-36.48,-21.91,-10.08,82908850
0.35,-8.91,0.19,-0.51,-0.29,0.26,-36.47,-22.27,-9.76,82908884
0.81,-10.09,-0.67,-1.36,-0.59,1.02,-36.93,-21.16,-10.46,82908918
1.20,-11.53,-0.74,-1.07,0.11,0.56,-37.39,-20.08,-9.66,82908953
0.89,-9.16,-1.16,-0.28,0.40,0.37,-37.02,-20.14,-11.25,82908987
3.04,-9.39,-2.30,-0.26,0.11,-0.20,-37.56,-20.29,-12.09,82909021
4.36,-8.58,-3.44,-0.48,0.19,-0.54,-37.23,-20.62,-12.44,82909055
5.18,-8.04,-4.51,-0.68,0.22,-0.85,-37.31,-21.78,-12.85,82909089
7.26,-6.95,-6.35,-0.87,0.72,-1.11,-37.07,-23.38,-14.47,82909124
5.18,-9.00,-3.55,-1.06,1.41,-1.13,-37.04,-25.58,-17.41,82909158
2.05,-6.06,-1.03,-0.57,1.41,-1.20,-36.67,-26.69,-20.72,82909192
-4.29,-18.09,-2.79,-0.83,0.35,-0.56,-36.42,-27.77,-21.92,82909226
-4.60,-10.26,-1.04,-0.41,0.11,-0.60,-36.63,-28.44,-23.27,82909260
-5.04,-11.73,-3.38,-0.28,-0.20,-0.31,-36.47,-28.62,-23.46,82909294
-4.85,-11.56,-3.04,-0.16,-0.43,0.19,-36.63,-28.79,-23.55,82909329
-1.98,-10.31,-3.64,-0.03,-0.59,0.31,-36.44,-27.62,-22.96,82909363
0.76,-9.26,-1.79,0.03,-0.53,0.35,-37.11,-27.78,-22.29,82909397
0.33,-8.32,-2.82,0.06,-0.21,0.06,-36.90,-27.51,-22.79,82909431
-0.16,-10.02,-2.87,-0.01,-0.05,0.01,-36.73,-27.17,-22.43,82909465
-2.87,-11.17,-2.65,-0.08,-0.08,0.00,-37.02,-27.07,-21.56,82909500
-3.00,-12.78,-3.18,-0.10,-0.35,0.14,-37.42,-27.10,-21.50,82909534
0.63,-8.76,-3.65,0.11,-0.73,0.39,-37.72,-26.78,-20.39,82909568
2.09,-8.58,-1.32,0.45,-1.14,0.59,-37.58,-25.64,-18.77,82909602
2.71,-9.32,-4.21,0.75,-1.53,0.33,-38.16,-25.04,-16.82,82909636
3.56,-7.56,-4.70,1.03,-1.94,0.01,-37.83,-24.77,-13.39,82909670
10.23,-5.22,-7.08,0.76,-1.72,-0.64,-36.35,-24.99,-11.06,82909705
6.58,-8.89,-5.12,0.71,0.10,-0.91,-35.85,-25.61,-10.07,82909739
2.99,-8.95,-2.41,0.62,0.44,-0.98,-35.91,-26.22,-11.08,82909773
3.07,-9.23,-1.61,0.40,-0.26,-1.41,-35.18,-27.42,-10.63,82909807
3.96,-7.54,-2.67,0.16,-0.82,-1.55,-34.19,-29.48,-10.42,82909841
4.25,-6.52,-3.43,0.01,-0.45,-1.20,-33.53,-31.34,-10.01,82909875
8.96,-5.01,-2.68,0.13,-0.33,-1.03,-32.43,-32.46,-9.73,82909910
2.75,-3.46,-2.76,-0.02,-0.08,-0.53,-31.99,-33.63,-10.41,82909944
-3.45,-30.17,-9.21,-1.19,0.43,0.72,-33.27,-33.65,-12.04,82909978
2.00,-4.97,2.13,-0.15,0.50,-0.46,-33.41,-33.66,-12.89,82910012
0.98,-11.27,-3.75,-0.12,-0.34,-0.37,-33.32,-33.50,-13.33,82910046
-0.80,-10.11,-3.39,-0.09,-0.10,0.13,-33.65,-33.82,-13.81,82910081
-0.22,-10.66,-2.81,0.01,-0.33,0.21,-33.73,-33.37,-14.50,82910115
1.32,-9.93,-2.71,0.15,-0.32,0.05,-34.11,-33.59,-13.74,82910149
1.22,-8.73,-2.38,0.17,-0.20,-0.03,-34.04,-33.16,-13.99,82910183
0.96,-9.97,-2.88,0.19,-0.23,-0.26,-33.92,-33.24,-13.37,82910217
4.77,-8.71,-4.81,0.46,0.39,-0.95,-33.27,-33.81,-13.36,82910251
3.86,-12.67,-5.69,0.12,0.72,-1.01,-32.72,-34.35,-14.32,82910286
1.77,-15.07,-4.38,0.14,0.49,-1.08,-31.67,-35.49,-13.93,82910320
6.65,-15.66,-4.98,0.02,-0.52,-1.67,-30.36,-36.57,-13.91,82910354
7.50,-6.19,-1.94,0.69,-0.07,-2.20,-28.19,-37.77,-12.80,82910388
10.95,3.51,-2.88,1.02,-0.95,-2.78,-25.99,-40.22,-13.07,82910422
1.71,-8.21,-0.13,0.05,-0.53,-2.85,-21.88,-42.25,-11.37,82910457
-0.94,-4.51,0.26,0.57,-1.53,-2.50,-18.84,-43.91,-10.42,82910491
1.52,-5.33,-1.11,0.46,-2.41,-2.37,-11.47,-45.62,-7.94,82910525
0.96,-6.39,-2.69,0.29,-3.25,-1.99,-10.57,-46.20,-7.04,82910559
2.24,-6.67,-4.32,0.45,-3.73,-1.55,-6.62,-46.32,-6.04,82910593
4.77,-6.65,-6.70,0.63,-3.04,-0.75,-2.62,-46.24,-3.98,82910627
2.68,-8.42,-6.08,0.79,-2.03,-0.06,-1.13,-45.62,-3.54,82910662
1.35,-10.49,-5.51,1.27,-1.39,0.62,-0.53,-44.23,-2.09,82910696
-11.90,-27.90,-5.40,-1.63,0.70,1.16,0.56,-44.26,-1.93,82910730
9.18,-12.91,-3.03,-0.53,-2.59,0.29,1.17,-42.09,-0.80,82910764
6.62,-4.76,-0.25,0.84,-0.49,1.40,0.72,-41.39,0.35,82910798
6.54,-6.15,-2.35,0.10,-0.10,1.90,-0.92,-41.52,0.47,82910833
6.53,-7.00,-1.60,-0.33,0.41,2.46,-3.46,-41.70,-0.75,82910867
5.50,-5.00,-1.38,-0.43,0.83,2.91,-7.25,-41.04,-2.22,82910901
6.62,-8.02,-6.37,-0.92,1.57,3.54,-11.12,-40.73,-3.05,82910935
3.48,-8.15,-4.70,-1.13,3.08,4.28,-17.85,-39.08,-6.62,82910969
2.10,-13.51,-3.00,-0.96,2.76,3.81,-22.43,-36.74,-9.08,82911003
2.22,-9.46,-3.62,-0.53,1.66,2.80,-25.50,-34.61,-11.33,82911038
1.78,-5.00,-6.44,-0.30,1.57,2.58,-29.06,-32.23,-13.53,82911072
-1.42,-7.29,-5.44,-0.35,2.51,2.77,-31.66,-29.71,-16.12,82911106
-1.68,-7.91,-3.04,-0.22,2.21,2.66,-33.85,-26.18,-18.94,82911140
0.18,-7.78,-4.79,-0.22,2.57,2.80,-35.14,-23.21,-23.12,82911174
-0.09,-7.48,-6.49,-0.37,3.24,3.00,-36.22,-20.30,-25.87,82911208
-4.05,-10.40,-7.98,-0.26,3.46,2.96,-36.14,-15.96,-30.88,82911243
2.64,-7.31,-6.29,-0.16,2.80,2.76,-36.04,-12.57,-34.23,82911277
4.46,-11.17,-6.95,-0.42,3.42,3.01,-34.67,-8.75,-39.17,82911311
4.99,-8.97,-7.33,-0.49,4.51,2.51,-31.89,-6.28,-44.08,82911345
6.95,-9.34,-6.97,-1.12,4.87,2.80,-27.68,-3.36,-47.12,82911379
2.55,-12.47,-2.14,-0.53,3.64,2.18,-22.52,-0.53,-51.46,82911414
-7.12,-10.20,-0.75,0.57,1.32,1.71,-20.51,0.58,-52.79,82911448
-15.18,-2.50,-3.32,1.24,0.78,2.58,-19.09,1.04,-53.58,82911482
-13.79,-6.29,-10.24,0.67,2.30,3.51,-15.29,3.23,-54.30,82911516
1.23,-1.93,-0.94,0.63,3.65,4.22,-10.74,4.82,-55.77,82911550
6.77,-8.30,-5.94,-0.14,3.69,4.57,-3.35,5.80,-55.98,82911584
5.12,-12.73,-3.81,-0.05,2.37,1.87,1.14,6.15,-55.07,82911619
-1.46,-9.22,-7.37,-0.20,2.80,2.33,4.41,6.20,-55.52,82911653
2.95,-12.74,-10.31,-0.78,3.65,2.98,10.39,6.26,-53.10,82911687
0.03,-11.72,-5.59,-0.83,4.64,2.78,16.94,6.09,-50.80,82911721
-0.34,-16.19,-3.35,-0.82,4.35,2.09,23.28,4.88,-45.53,82911755
1.44,-10.52,1.53,-0.26,4.50,1.82,27.43,3.45,-41.82,82911790
0.52,-7.02,-6.80,-0.88,3.94,3.18,31.26,-0.13,-36.41,82911824
-14.88,-9.40,-11.47,0.07,5.60,4.57,35.25,-5.64,-29.29,82911858
-2.35,-3.92,-2.64,-0.43,3.65,4.32,36.09,-10.96,-23.60,82911892
9.07,-14.92,0.71,-0.43,2.99,4.53,35.94,-16.98,-20.17,82911926
10.12,-12.83,-4.28,-0.39,2.99,3.26,34.64,-22.29,-16.00,82911960
7.22,-6.19,-6.74,-0.22,2.52,2.28,32.40,-25.46,-13.05,82911995
4.86,-9.42,-6.63,-0.30,3.82,3.20,29.04,-29.26,-8.14,82912029
1.02,-8.96,-3.27,-0.20,3.69,2.76,25.67,-32.02,-5.99,82912063
5.32,-8.72,0.77,0.11,1.74,2.73,22.05,-34.24,-3.22,82912097
-4.72,-7.17,-5.88,0.26,3.62,4.47,16.06,-36.96,-1.72,82912131
-1.86,-6.63,-6.81,0.52,3.13,2.82,10.98,-38.57,0.07,82912166
2.53,-8.25,-5.28,0.09,3.07,3.14,4.84,-38.94,0.96,82912200
1.29,-10.10,-4.91,0.21,2.62,2.79,-0.19,-39.02,1.93,82912234
10.34,-5.63,-8.47,0.55,1.20,0.65,-2.66,-38.61,1.83,82912268
0.51,-5.77,-7.31,0.38,2.65,1.43,-6.55,-37.88,1.62,82912302
0.29,-7.74,-1.27,0.84,2.01,1.32,-9.18,-37.26,2.02,82912336
8.96,-25.97,-12.23,-0.78,0.43,0.07,-9.79,-37.46,1.01,82912371
-8.17,-2.54,-14.31,-0.21,3.61,0.37,-11.90,-37.20,0.60,82912405
-6.12,-7.63,-0.27,0.65,1.45,1.13,-15.97,-36.03,-0.76,82912439
0.96,-6.32,-5.85,0.70,0.85,1.23,-18.52,-34.38,-0.48,82912473
4.56,-0.06,-10.48,0.60,2.63,1.51,-21.56,-32.90,-2.44,82912507
-3.87,-7.08,-3.02,0.55,2.50,1.11,-24.76,-31.88,-3.99,82912541
3.72,-6.84,-6.93,0.64,3.11,0.45,-26.82,-30.46,-6.78,82912576
0.06,-10.47,-1.34,0.33,2.38,-0.39,-28.78,-30.58,-8.80,82912610
-3.43,-7.94,0.22,0.20,2.24,0.30,-30.18,-30.90,-11.93,82912644
-3.12,-13.84,-2.57,0.05,1.75,1.50,-31.67,-28.66,-14.37,82912678
3.04,-2.00,-9.89,0.04,3.26,1.75,-33.56,-27.00,-17.74,82912712
-0.58,-4.58,-7.02,-0.47,4.90,2.48,-35.79,-23.68,-24.17,82912747
-3.26,-17.41,-0.25,-0.42,4.18,2.97,-36.60,-20.37,-29.87,82912781
-3.80,-7.83,1.39,-0.05,1.22,1.82,-36.85,-17.41,-33.46,82912815
16.15,-13.68,0.36,0.55,0.50,1.12,-36.73,-15.97,-33.50,82912849
1.36,-13.53,0.04,0.66,2.45,1.52,-36.29,-14.57,-36.45,82912883
1.40,-13.01,-0.73,0.28,2.14,0.70,-35.14,-13.26,-39.59,82912917
1.06,-9.91,0.83,0.73,1.70,0.15,-34.30,-13.21,-41.74,82912952
-2.22,-8.55,2.05,1.17,0.84,-0.36,-33.34,-13.52,-42.98,82912986
-2.57,-7.06,0.30,1.42,-0.65,-1.05,-33.34,-16.11,-42.75,82913020
-0.77,-6.16,-1.61,1.54,-1.03,-1.13,-33.75,-17.86,-41.16,82913054
-0.51,-6.78,-1.84,1.54,-0.66,-0.81,-34.45,-19.75,-39.68,82913088
-1.41,-7.97,-2.08,1.41,-0.46,-0.43,-34.19,-21.00,-40.12,82913123
-0.96,-10.29,-2.98,1.21,-0.87,-0.42,-34.87,-21.62,-37.97,82913157
-0.34,-9.83,-3.13,0.95,-1.08,-0.53,-34.96,-22.79,-36.55,82913191
0.57,-10.08,-3.31,0.65,-0.39,-0.28,-34.95,-23.00,-35.78,82913225
0.11,-9.97,-2.15,0.51,-0.04,-0.19,-34.90,-23.78,-35.50,82913259
0.01,-8.87,-0.57,0.31,-0.29,-0.35,-35.34,-23.60,-35.90,82913293
2.09,-7.42,-1.97,0.05,-1.51,-0.84,-35.71,-24.39,-34.57,82913328
2.31,-4.47,-4.20,-0.25,-2.28,-1.19,-35.79,-26.16,-31.79,82913362
-7.62,-25.45,-7.93,-0.92,2.96,-0.29,-35.50,-27.14,-31.26,82913396
5.11,-14.53,-1.95,-0.38,-0.59,-1.17,-35.36,-27.81,-31.75,82913430
0.55,-5.53,6.10,-0.52,-0.38,-0.78,-35.18,-28.44,-31.89,82913464
2.64,-20.97,-5.66,-0.98,-0.78,-0.07,-35.17,-28.15,-31.88,82913499
-4.26,-7.57,-2.32,-0.61,0.18,0.03,-34.87,-28.38,-32.74,82913533
-2.23,-9.95,-2.86,-0.51,-0.43,0.11,-35.14,-27.95,-32.87,82913567
-1.00,-10.36,-2.29,-0.24,-0.81,0.16,-35.63,-27.42,-31.99,82913601
-1.07,-10.21,-2.71,-0.07,-0.76,0.17,-35.94,-27.10,-31.18,82913635
-3.28,-9.43,-1.02,0.08,-0.71,0.17,-36.10,-26.73,-30.71,82913669
-4.77,-11.36,-0.70,0.19,-1.21,0.21,-37.07,-26.48,-28.50,82913704
-2.71,-10.57,-2.23,0.29,-1.49,0.25,-37.23,-26.28,-27.32,82913738
-1.81,-9.84,-1.98,0.50,-1.38,0.32,-37.96,-25.67,-24.60,82913772
3.38,-11.94,-6.45,0.48,-1.45,0.05,-38.03,-25.53,-22.70,82913806
6.24,-10.14,-3.27,0.39,-1.19,-0.36,-38.03,-25.80,-20.93,82913840
7.60,-7.27,-8.36,0.56,-1.77,-0.96,-36.80,-27.10,-17.45,82913875
10.45,-13.15,-9.21,1.07,-1.87,-1.50,-35.24,-28.59,-15.24,82913909
9.44,-7.84,-8.12,1.33,-2.47,-2.95,-32.72,-31.18,-10.04,82913943
9.26,1.10,-6.45,1.53,-2.26,-3.44,-29.20,-33.65,-8.27,82913977
8.19,-5.52,-6.70,0.05,-1.54,-3.67,-25.01,-36.38,-6.45,82914011
2.36,-4.15,-3.59,0.53,-0.76,-3.03,-20.96,-38.85,-5.52,82914045
-0.24,-5.50,-0.43,0.29,-0.96,-2.58,-18.42,-41.03,-5.17,82914080
0.19,-6.45,-0.10,-0.03,-1.72,-2.29,-15.24,-42.65,-4.28,82914114
-0.30,-6.96,-1.67,-0.31,-2.77,-1.75,-10.67,-43.10,-3.29,82914148
1.83,-7.27,-3.96,-0.30,-3.40,-1.21,-7.31,-43.74,-3.52,82914182
5.48,-9.23,-3.98,0.04,-3.02,-0.32,-4.06,-44.01,-2.81,82914216
2.45,-9.53,-3.99,0.41,-1.96,0.74,-3.35,-43.38,-2.56,82914250
3.56,-10.23,-3.80,0.58,-1.70,1.18,-3.11,-43.32,-1.70,82914285
36.76,-17.44,-23.11,-1.47,-3.44,0.85,-2.78,-43.93,-3.81,82914319
12.75,-11.12,0.19,-1.27,-1.72,0.80,-5.58,-42.12,-2.24,82914353
5.89,-6.83,-1.45,-0.35,-0.33,1.86,-6.65,-41.55,-2.38,82914387
4.88,-6.65,-3.47,-0.29,0.59,2.77,-9.35,-40.94,-3.14,82914421
4.79,-7.80,-4.07,-0.41,0.90,2.98,-12.31,-39.86,-3.57,82914456
5.37,-4.42,-2.86,-0.28,1.42,3.32,-16.41,-38.53,-5.09,82914490
3.16,-8.60,-4.84,-0.52,1.46,3.54,-20.71,-36.83,-6.90,82914524
2.80,-10.06,-4.70,-0.59,1.88,3.30,-24.73,-33.91,-9.21,82914558
1.74,-8.99,-5.45,-0.70,2.69,3.33,-28.08,-31.42,-11.44,82914592
1.29,-7.39,-6.59,-0.88,3.19,3.19,-31.34,-28.71,-15.71,82914626
1.66,-7.04,-5.75,-0.62,3.59,3.17,-34.42,-25.04,-20.70,82914661
-1.68,-7.44,-8.61,-0.53,3.53,2.79,-35.31,-22.03,-25.08,82914695
-1.68,-8.07,-3.95,-0.22,3.55,2.82,-35.97,-17.87,-29.01,82914729
-4.77,-8.68,-2.94,0.06,3.44,3.35,-35.44,-14.35,-33.38,82914763
2.84,-8.94,-6.49,-0.19,2.79,2.80,-35.09,-11.03,-37.72,82914797
0.93,-6.78,-7.59,-0.20,3.60,3.08,-32.93,-6.84,-41.92,82914832
-0.83,-7.93,-7.10,0.01,3.81,3.20,-30.24,-3.77,-45.00,82914866
1.11,-8.18,-4.81,0.02,3.21,2.42,-27.38,-1.56,-48.26,82914900
-0.91,-9.72,-3.60,0.03,2.97,2.51,-23.34,0.64,-50.64,82914934
-9.68,-9.12,-6.00,0.32,2.57,2.60,-19.73,1.90,-52.15,82914968
-6.40,-5.68,-5.41,0.41,3.11,3.24,-14.47,3.67,-53.54,82915002
-1.31,-5.41,-5.13,0.11,4.35,3.98,-8.51,4.62,-54.98,82915037
-0.12,-11.24,-3.28,-0.57,4.67,3.60,-2.02,5.85,-55.25,82915071
4.07,-10.74,-4.62,-0.64,4.10,2.94,5.92,6.62,-54.14,82915105
0.65,-9.95,-4.49,-0.64,4.04,2.91,11.53,6.52,-52.56,82915139
0.74,-14.06,-7.60,-1.07,4.49,3.69,18.78,5.07,-48.68,82915173
-0.56,-14.32,-3.70,-0.89,4.62,3.60,24.76,2.78,-44.05,82915208
2.51,-8.23,-0.80,-0.45,4.86,3.74,29.04,-0.47,-39.14,82915242
-2.90,-6.48,-4.97,-0.43,4.87,3.80,33.53,-5.44,-32.49,82915276
-6.81,-6.89,-7.02,-0.46,4.99,4.20,35.34,-10.30,-26.78,82915310
-12.81,-1.12,1.66,0.94,5.48,4.89,36.01,-17.16,-19.41,82915344
-0.07,-11.25,-3.15,0.22,3.50,4.82,33.79,-23.22,-15.54,82915378
5.43,-10.27,-0.78,-0.04,3.72,4.16,30.31,-28.05,-11.58,82915413
6.54,-9.98,-2.70,0.05,2.25,3.15,26.66,-32.65,-9.12,82915447
8.51,-6.94,-5.86,-0.01,2.35,2.77,23.41,-34.84,-6.88,82915481
2.16,-9.32,-6.36,-0.02,2.76,2.54,19.89,-37.11,-4.21,82915515
3.77,-10.54,-1.86,-0.01,2.28,2.76,14.82,-38.78,-4.19,82915549
-1.13,-10.35,-5.75,-0.10,2.86,3.12,10.19,-39.84,-2.27,82915583
1.87,-7.39,-8.29,0.16,2.35,2.17,5.42,-40.13,-2.25,82915618
2.97,-8.39,-7.94,0.05,2.59,1.67,2.09,-40.28,-1.68,82915652
1.29,-10.22,-2.53,0.06,2.82,1.77,-1.77,-40.76,-2.16,82915686
-1.60,-10.79,-4.06,0.05,2.58,2.24,-6.69,-40.43,-2.12,82915720
-1.28,-8.36,-6.22,0.17,1.97,1.68,-10.52,-40.02,-2.88,82915754
1.56,-7.24,-5.00,0.34,1.89,1.64,-13.83,-39.05,-3.99,82915789
-0.79,-8.21,-4.76,0.32,2.04,1.98,-16.94,-37.64,-5.07,82915823
0.07,-8.03,-7.18,0.29,2.06,1.43,-19.48,-36.28,-5.86,82915857
2.78,-6.73,-5.92,0.18,2.51,1.46,-22.55,-34.96,-8.49,82915891
-0.11,-10.01,-6.00,-0.03,3.18,1.83,-25.72,-33.41,-11.02,82915925
-0.10,-9.06,-5.54,-0.08,3.44,1.82,-28.88,-31.75,-15.74,82915959
0.84,-7.43,-5.40,-0.21,3.71,2.34,-31.15,-29.22,-19.83,82915994
-1.59,-8.00,-6.61,-0.24,3.94,2.45,-33.32,-26.69,-23.74,82916028
-0.36,-5.75,-7.69,-0.34,4.42,2.62,-34.11,-23.14,-29.55,82916062
2.27,-3.97,-9.28,-0.67,5.81,3.58,-34.54,-19.98,-36.03,82916096
-1.76,-6.80,-11.31,-1.07,6.88,4.09,-31.57,-14.26,-44.88,82916130
-1.69,-8.00,-7.51,-1.25,7.41,3.91,-25.39,-10.07,-52.05,82916165
-0.53,-8.42,-3.54,-1.13,6.44,3.45,-17.80,-7.07,-55.86,82916199
-0.65,-10.17,-2.65,-1.02,4.99,3.24,-9.94,-4.56,-58.16,82916233
-5.76,-10.82,-3.37,-0.63,3.23,2.66,-4.55,-2.79,-58.56,82916267
-1.16,-5.95,-6.33,-0.27,2.14,2.38,-1.13,-2.82,-58.46,82916301
-4.32,-1.73,-7.47,0.08,3.11,3.17,4.12,-2.86,-57.82,82916335
-3.06,-6.02,-7.02,-0.43,3.78,3.61,8.90,-3.10,-57.04,82916370
0.99,-8.77,-4.77,-0.39,3.70,3.32,14.83,-4.40,-54.63,82916404
1.00,-8.17,-4.62,-0.45,3.67,3.33,19.06,-5.70,-51.68,82916438
-0.11,-5.26,-3.88,-0.28,4.18,3.86,23.03,-7.79,-48.63,82916472
-5.65,-7.89,-6.25,-0.47,4.66,4.55,27.81,-11.75,-43.45,82916506
-0.42,-8.75,-6.61,-0.36,4.77,3.95,30.69,-16.11,-39.04,82916541
2.84,-8.98,-3.53,-0.37,3.86,2.61,32.70,-19.13,-33.21,82916575
1.39,-9.80,-5.77,-0.74,4.46,2.88,32.89,-22.57,-28.12,82916609
-1.46,-7.51,-7.51,-0.77,4.92,2.54,32.89,-25.30,-23.36,82916643
-2.62,-8.16,-8.32,-1.12,5.49,3.44,30.44,-28.68,-17.01,82916677
-3.33,-11.45,-5.71,-1.26,6.00,4.00,26.51,-32.65,-12.89,82916711
0.42,-10.78,-0.75,-1.11,5.66,3.84,21.03,-36.92,-8.07,82916746
1.89,-9.02,-3.71,-1.06,5.03,3.70,14.05,-40.16,-6.18,82916780
1.84,-6.37,-5.23,-0.74,4.29,3.12,8.93,-41.68,-5.45,82916814
1.96,-5.69,-7.02,-0.65,3.93,3.21,1.94,-42.53,-5.57,82916848
4.12,-6.88,-6.67,-0.74,3.90,3.47,-4.19,-42.87,-7.03,82916882
1.18,-9.72,-9.67,-1.34,4.11,3.65,-10.42,-42.37,-9.22,82916916
5.82,-6.25,-5.69,-0.90,5.24,3.14,-17.32,-41.51,-12.23,82916951
5.34,-6.16,-4.59,-0.96,5.31,3.21,-21.76,-38.92,-18.05,82916985
4.89,-8.30,-5.97,-1.11,4.90,2.76,-25.91,-36.28,-23.66,82917019
6.11,-7.41,-8.87,-0.99,5.07,1.57,-27.48,-34.24,-29.38,82917053
-3.23,-3.96,-5.83,-1.31,7.61,0.98,-27.04,-33.13,-35.28,82917087
3.91,-6.24,-11.73,-4.73,7.65,3.06,-23.82,-30.11,-45.22,82917122
3.22,-13.71,-0.89,-2.35,7.33,1.01,-18.96,-27.65,-50.61,82917156
-3.18,-0.80,-0.34,-1.84,4.55,-0.58,-12.44,-24.86,-55.73,82917190
8.27,-8.53,-7.29,-2.62,5.24,0.05,-7.80,-22.22,-58.32,82917224
14.65,-2.87,-3.93,-2.00,4.08,0.50,-2.38,-19.70,-58.71,82917258
9.23,-5.97,-3.39,-1.29,2.74,0.44,2.24,-18.06,-59.19,82917292
11.95,-5.89,-2.49,-0.37,1.42,0.72,4.63,-17.54,-59.12,82917327
12.60,-4.95,0.87,-0.17,2.02,1.55,6.77,-17.64,-58.48,82917361
6.92,-8.07,1.67,-0.99,3.80,2.63,11.02,-17.67,-56.78,82917395
-3.70,-9.70,0.74,-1.07,4.26,2.85,15.68,-17.60,-54.97,82917429
-5.56,-8.86,1.38,-0.95,1.10,2.25,18.17,-18.20,-53.89,82917463
-2.76,-7.17,0.30,-0.89,0.58,2.22,18.66,-18.62,-53.43,82917498
2.28,-5.04,-1.87,-0.92,1.78,3.08,18.99,-19.89,-49.33,82917532
-3.40,-4.88,-1.98,-0.60,3.55,3.82,21.59,-22.26,-50.10,82917566
4.77,-10.25,-5.52,-0.19,3.52,4.08,22.96,-25.37,-47.35,82917600
7.76,-4.30,-6.73,-0.05,1.10,3.98,22.14,-28.75,-45.72,82917634
-0.78,-17.81,-3.87,-1.74,-1.67,2.11,20.37,-29.98,-47.72,82917668
-7.81,-5.24,-7.60,2.08,0.71,1.23,18.62,-29.07,-48.82,82917703
-5.79,-17.76,-8.03,-2.37,-0.61,0.72,17.73,-29.39,-49.46,82917737
-2.45,-7.56,-1.23,-0.18,0.02,0.22,17.47,-29.16,-49.47,82917771
-4.85,-7.87,-3.30,-0.48,0.91,0.34,18.69,-28.81,-49.62,82917805
-1.76,-6.97,-2.29,-0.38,1.80,0.46,19.61,-28.94,-48.82,82917839
-8.08,-6.33,-3.39,-0.07,2.77,0.58,21.78,-29.41,-46.74,82917874
-5.45,-6.49,-1.92,-0.01,1.57,0.35,22.96,-29.01,-44.83,82917908
-3.42,-7.20,-2.57,-0.20,0.20,-0.28,23.65,-28.84,-44.59,82917942
-5.32,-7.12,-3.03,-0.22,-0.46,-0.57,23.62,-28.49,-44.56,82917976
-3.74,-6.96,-4.41,-0.21,-1.09,-0.79,23.22,-27.57,-46.02,82918010
-3.73,-8.09,-3.52,0.12,-0.23,-0.66,22.81,-27.26,-46.54,82918044
-4.38,-8.59,-2.05,0.31,-0.22,-0.69,23.31,-26.56,-46.95,82918079
-4.04,-9.30,-0.86,0.36,-0.88,-0.96,23.74,-26.12,-46.89,82918113
-3.60,-8.55,-1.12,0.25,-2.14,-1.44,21.95,-24.55,-49.05,82918147
-2.05,-7.62,-1.15,0.24,-2.19,-1.43,20.96,-23.56,-50.50,82918181
-1.61,-8.11,-1.36,0.27,-1.50,-1.01,19.70,-23.00,-52.25,82918215
-2.54,-8.66,-0.89,0.27,-1.38,-0.95,18.78,-22.30,-52.73,82918250
-0.71,-8.00,-1.54,0.13,-1.57,-1.10,17.47,-21.86,-53.32,82918284
1.46,-6.59,-2.33,-0.05,-1.46,-1.32,16.28,-20.59,-54.53,82918318
33.16,-0.51,-7.40,1.15,-2.20,-3.38,15.40,-18.91,-55.28,82918352
-0.07,-8.52,1.37,-0.53,1.71,-1.88,17.33,-17.17,-54.75,82918386
-2.22,-13.14,-1.30,-0.61,0.01,-1.60,18.25,-14.86,-54.84,82918420
0.65,-10.13,-2.49,-0.15,-0.22,-1.15,18.56,-13.64,-54.38,82918455
-0.06,-10.39,-3.67,-0.28,-0.35,-0.82,18.14,-12.44,-54.74,82918489
-1.73,-8.72,-4.20,-0.04,-0.66,-0.67,17.67,-11.66,-54.68,82918523
-0.40,-10.62,-2.26,-0.01,-0.96,-0.62,16.59,-11.08,-55.33,82918557
-1.70,-10.22,-1.94,0.22,-1.50,-0.59,15.29,-10.90,-56.65,82918591
-1.68,-10.16,-2.86,0.40,-2.28,-0.74,12.91,-10.23,-57.21,82918625
-2.33,-10.13,-3.05,0.51,-2.39,-0.76,10.64,-10.41,-58.36,82918660
0.65,-6.22,-6.51,0.59,-2.09,-0.81,7.28,-10.03,-59.50,82918694
-4.06,-9.48,-3.20,0.44,-2.11,-0.34,5.74,-10.13,-59.38,82918728
-0.11,-11.73,-1.01,0.35,-2.86,-0.47,2.56,-9.88,-60.22,82918762
-1.90,-9.36,0.37,0.63,-1.58,0.33,0.42,-9.28,-60.42,82918796
-1.95,-8.09,-2.08,0.16,-2.04,0.20,-2.25,-8.97,-60.80,82918831
-0.49,-6.12,-5.73,0.49,-1.41,0.39,-4.84,-8.51,-61.03,82918865
-2.80,-6.91,-4.30,0.48,-1.40,0.39,-5.80,-8.46,-61.36,82918899
-4.84,-10.11,-4.35,0.25,-1.71,0.48,-7.54,-8.74,-61.12,82918933
-5.09,-5.69,-5.72,0.66,-1.65,0.38,-9.59,-8.84,-61.85,82918967
-3.80,-10.08,-5.39,0.38,-2.21,0.33,-12.15,-9.22,-61.14,82919001
-5.26,-9.67,-6.20,0.20,-2.78,-0.03,-15.84,-8.54,-60.36,82919036
-0.62,-8.66,-7.75,0.15,-2.42,-0.58,-18.56,-8.71,-58.51,82919070
3.77,-8.71,-9.30,0.07,-1.60,-0.54,-20.81,-8.78,-58.56,82919104
4.71,-8.66,-6.65,0.14,-1.36,-0.43,-22.04,-8.64,-57.60,82919138
0.57,-9.52,-5.19,0.61,-3.60,-1.37,-24.33,-9.19,-56.14,82919172
10.94,-12.64,-5.81,0.39,-4.87,-2.04,-29.92,-11.43,-51.53,82919207
8.86,-6.88,-6.44,0.86,-3.44,-1.89,-32.65,-13.90,-47.54,82919241
8.79,-5.93,-4.38,0.54,-2.86,-1.88,-34.52,-16.02,-45.05,82919275
5.21,-3.26,-3.12,0.06,-2.30,-1.72,-36.22,-18.62,-42.24,82919309
5.61,-2.32,-3.75,-0.64,-2.00,-1.26,-36.88,-19.76,-39.92,82919343
13.63,-19.53,-13.80,-0.69,-1.48,0.12,-37.36,-19.58,-38.67,82919377
35.20,24.46,-5.37,8.92,-4.54,-6.81,-36.76,-22.14,-39.80,82919412
-2.23,-14.53,-1.75,1.02,-0.01,-0.56,-36.00,-19.82,-40.34,82919446
-3.32,-16.05,-2.77,-1.11,-0.01,0.21,-36.13,-20.34,-41.46,82919480
-3.68,-10.06,-2.25,-0.22,-0.28,0.38,-36.20,-19.25,-41.60,82919514
-3.91,-9.05,-4.86,-0.14,-0.65,0.74,-36.89,-17.93,-41.04,82919548
-1.06,-8.69,-2.58,-0.06,-0.92,0.67,-37.30,-16.63,-40.37,82919583
-0.32,-8.44,-3.11,-0.12,-0.68,0.45,-38.04,-16.15,-39.65,82919617
-0.46,-9.10,-3.62,-0.13,-0.84,0.03,-38.91,-15.73,-38.72,82919651
-1.35,-8.40,-4.57,-0.14,-0.81,-0.23,-38.88,-15.68,-37.58,82919685
-1.99,-8.68,-4.50,-0.08,-0.39,-0.47,-39.11,-15.77,-37.26,82919719
-1.92,-9.01,-3.90,0.04,-0.07,-0.55,-38.83,-16.81,-37.37,82919753
-2.57,-9.57,-3.01,0.22,0.36,-0.54,-38.80,-16.88,-37.40,82919788
-5.03,-7.79,-2.70,0.35,0.61,-0.92,-38.07,-18.55,-38.18,82919822
-3.54,-14.02,-3.88,0.25,-0.05,-0.97,-37.74,-19.63,-38.09,82919856
1.54,-19.26,1.87,0.74,-0.25,-1.00,-37.62,-21.37,-37.96,82919890
3.61,-16.32,-7.87,1.12,-1.04,-1.22,-37.65,-23.15,-37.01,82919924
8.97,-4.91,-8.95,2.63,-2.78,-1.78,-37.72,-26.10,-32.81,82919958
11.11,-0.33,-6.93,2.27,-2.59,-2.69,-36.71,-29.71,-27.23,82919993
9.23,0.66,-7.35,1.28,-2.10,-3.13,-34.96,-32.99,-23.53,82920027
5.22,-6.70,-4.42,0.65,-2.69,-3.55,-31.28,-37.55,-20.26,82920061
2.75,-5.83,-2.98,0.64,-2.71,-3.23,-27.32,-39.73,-17.52,82920095
0.83,-7.15,-1.58,0.59,-2.65,-2.86,-23.60,-41.57,-14.89,82920129
0.50,-7.35,-2.04,0.47,-3.30,-2.39,-19.50,-43.23,-11.56,82920164
1.75,-8.17,-1.84,0.46,-3.55,-1.77,-16.15,-44.39,-9.65,82920198
3.83,-8.69,-2.78,0.38,-3.73,-1.21,-12.82,-44.90,-6.96,82920232
3.70,-9.86,-2.82,0.55,-2.94,-0.28,-9.27,-44.45,-4.56,82920266
7.94,-9.43,-11.13,0.80,-2.27,0.27,-8.45,-44.02,-3.60,82920300
-14.87,0.93,2.60,5.84,1.53,1.31,-8.07,-42.34,-1.91,82920334
2.68,-6.48,-1.46,1.40,-1.49,-0.01,-6.56,-42.47,-1.71,82920369
5.07,-7.93,-3.70,0.62,-1.03,0.34,-5.35,-41.61,-1.37,82920403
2.77,-8.26,-3.81,0.25,-0.39,0.99,-5.69,-41.22,-1.74,82920437
5.64,-5.47,-2.60,-0.16,-0.49,1.44,-6.31,-41.25,-1.94,82920471
5.14,-6.47,-4.30,0.10,0.31,2.21,-8.56,-40.82,-1.87,82920505
6.54,-6.74,-4.52,-0.36,0.60,2.65,-11.47,-39.55,-3.52,82920540
2.83,-8.73,-3.48,-0.72,1.38,3.30,-15.13,-38.44,-4.56,82920574
5.65,-7.85,-2.05,-0.68,1.39,3.55,-19.42,-36.88,-6.84,82920608
5.12,-9.85,-5.40,-0.80,1.41,3.39,-23.33,-35.00,-8.81,82920642
3.64,-3.04,-6.67,-0.38,2.75,3.12,-27.10,-32.64,-11.63,82920676
0.22,-10.91,-6.49,-1.21,3.67,3.28,-30.66,-29.64,-16.25,82920710
-1.32,-10.18,-5.70,-0.60,3.03,2.26,-33.10,-27.11,-19.09,82920745
-1.00,-6.10,-5.65,-0.33,2.72,2.06,-34.89,-24.70,-22.95,82920779
1.46,-6.57,-7.31,-0.52,2.75,2.32,-35.47,-22.71,-26.50,82920813
1.99,-10.14,-6.59,-0.76,3.05,2.61,-36.09,-18.99,-30.62,82920847
-3.50,-9.28,-4.47,-0.53,3.46,3.11,-35.56,-15.16,-34.84,82920881
-3.58,-9.14,-3.81,-0.16,2.85,3.38,-34.70,-11.60,-38.45,82920916
-3.06,-5.84,-7.76,0.21,2.42,3.42,-33.75,-7.16,-41.19,82920950
2.08,-7.09,-7.19,0.07,2.52,3.31,-31.48,-3.74,-44.12,82920984
1.41,-7.64,-8.15,0.05,3.32,3.41,-27.80,0.41,-47.63,82921018
-2.75,-8.47,-5.28,0.21,3.33,3.21,-24.19,2.35,-50.61,82921052
-1.34,-11.02,-4.27,0.09,2.76,3.03,-20.48,4.63,-52.03,82921086
-1.43,-9.17,-4.81,0.10,2.41,2.71,-15.51,6.31,-54.12,82921121
0.25,-6.88,-6.46,0.25,2.40,2.51,-12.07,6.94,-54.17,82921155
3.03,-6.07,-8.47,0.11,3.07,2.44,-7.40,8.16,-55.95,82921189
1.42,-10.14,-4.73,-0.22,3.36,2.32,-2.21,8.42,-56.02,82921223
-3.12,-11.75,-4.57,-0.24,3.22,2.20,2.47,8.87,-55.66,82921257
-6.89,-13.66,-3.78,-0.26,3.30,2.44,8.23,8.45,-53.49,82921291
-1.12,-10.23,-3.41,-0.01,3.38,3.10,13.08,7.63,-51.83,82921326
-4.73,-4.42,-3.45,0.20,3.80,3.95,20.32,5.04,-48.71,82921360
-8.34,-7.72,-2.33,0.36,4.37,5.27,26.47,0.61,-45.15,82921394
-3.10,-10.33,-3.08,0.19,3.82,4.71,31.07,-3.61,-39.99,82921428
4.83,-10.02,-1.55,-0.27,3.66,4.22,33.98,-9.78,-35.55,82921462
5.62,-10.49,-6.04,-0.41,3.38,3.34,35.60,-13.86,-31.39,82921497
5.92,-12.69,-6.74,-0.62,3.58,2.48,36.04,-17.86,-26.22,82921531
4.91,-13.45,-5.65,-0.88,3.87,2.44,35.53,-20.90,-21.73,82921565
-0.14,-11.16,-1.12,-0.36,3.69,2.15,34.46,-23.60,-17.49,82921599
1.32,-5.83,-1.80,-0.32,3.03,2.58,32.17,-26.73,-13.43,82921633
-7.06,-5.04,-4.96,0.02,3.86,4.06,28.59,-31.35,-9.46,82921667
-17.98,-9.28,-6.05,0.21,3.59,4.92,22.19,-36.13,-6.68,82921702
2.58,-8.96,-1.74,0.83,2.51,3.99,17.89,-38.97,-5.61,82921736
9.03,-9.88,-3.44,0.04,1.97,3.13,13.15,-40.70,-4.94,82921770
5.82,-8.32,-6.84,0.01,2.11,2.26,8.32,-41.48,-4.43,82921804
9.48,-6.75,-9.09,-0.14,2.45,1.57,5.28,-41.73,-3.98,82921838
0.36,-8.37,-7.33,-0.21,2.96,2.04,1.36,-42.41,-3.73,82921873
-4.64,-8.22,-3.11,0.05,2.69,2.19,-3.46,-42.85,-5.28,82921907
-5.59,-9.90,-3.07,-0.07,2.15,3.00,-8.36,-41.79,-5.52,82921941
-3.31,-7.98,-4.35,0.34,2.28,3.13,-13.43,-40.09,-6.85,82921975
-0.34,-5.29,-4.06,0.48,1.85,2.75,-16.76,-38.48,-7.97,82922009
4.67,-8.09,-6.04,0.31,1.55,1.88,-19.57,-37.42,-8.40,82922043
2.32,-7.01,-6.52,0.20,1.52,1.37,-21.79,-36.17,-10.04,82922078
-0.14,-9.86,-6.05,0.08,1.86,1.82,-24.16,-35.09,-11.20,82922112
0.19,-9.07,-3.32,0.22,1.73,1.96,-26.59,-33.40,-13.46,82922146
1.67,-8.35,-5.83,0.21,1.44,1.65,-28.53,-31.72,-14.89,82922180
0.70,-6.25,-8.42,0.26,1.32,0.79,-29.26,-30.88,-16.08,82922214
3.40,-5.95,-5.65,0.06,1.77,1.37,-30.36,-29.73,-17.95,82922249
1.72,-9.86,-6.81,-0.17,2.49,1.46,-31.86,-28.12,-21.13,82922283
-0.50,-8.42,-6.42,-0.22,2.61,0.46,-32.51,-26.82,-24.66,82922317
-1.94,-8.76,-3.96,-0.27,2.19,0.80,-33.00,-26.37,-27.40,82922351
-2.90,-11.21,-4.12,-0.37,2.04,1.00,-33.54,-25.34,-29.55,82922385
-0.06,-7.99,-3.16,-0.19,2.09,1.29,-33.29,-23.75,-33.05,82922419
4.21,-4.94,-4.76,-0.24,2.40,1.94,-33.32,-21.70,-35.21,82922454
1.03,-4.59,-11.00,-0.73,3.44,3.20,-32.86,-17.77,-39.30,82922488
-2.16,-7.76,-8.13,-0.35,3.81,3.31,-31.09,-13.99,-43.92,82922522
1.45,-9.15,-1.57,-0.13,3.59,3.01,-29.16,-11.55,-46.45,82922556
-6.71,-12.24,-1.49,-0.37,2.64,3.13,-25.94,-8.11,-50.22,82922590
-0.37,-9.80,-4.47,-0.04,1.57,2.77,-24.36,-5.66,-52.60,82922625
-1.39,-5.24,-5.35,0.20,2.45,3.29,-21.16,-2.46,-53.68,82922659
5.77,-9.28,-7.58,-0.12,3.24,3.58,-17.58,0.41,-54.88,82922693
4.28,-7.78,-4.70,-0.22,3.56,2.85,-12.93,1.97,-55.89,82922727
-0.82,-10.35,-4.54,-0.24,2.74,2.54,-7.38,3.19,-56.39,82922761
-3.49,-9.74,-2.51,0.01,1.80,1.93,-4.87,3.89,-57.16,82922795
-0.83,-8.03,-5.09,-0.01,1.97,2.26,-0.98,3.68,-56.31,82922830
-4.70,-8.47,-6.28,-0.09,2.38,3.09,3.48,3.74,-56.31,82922864
5.34,-10.45,-6.18,-0.39,2.73,2.62,8.05,3.89,-56.12,82922898
2.62,-8.72,-8.18,-0.44,3.64,2.51,14.03,2.75,-54.21,82922932
4.21,-6.17,-6.39,-0.59,4.51,2.31,19.06,2.47,-50.98,82922966
0.50,-11.56,-4.91,-1.04,5.63,2.76,25.48,0.96,-44.74,82923000
-0.37,-11.29,-1.46,-0.86,4.48,2.17,29.77,-1.21,-40.98,82923035
2.85,-8.74,-2.90,-0.72,2.81,2.17,32.24,-3.35,-35.93,82923069
2.23,-9.86,-8.44,-0.87,2.87,2.56,34.58,-6.43,-31.83,82923103
-3.91,-5.62,-8.38,-0.42,3.22,2.91,35.53,-9.66,-28.03,82923137
-4.17,-7.42,-0.79,0.27,3.39,3.88,35.95,-14.95,-23.09,82923171
-16.48,-13.79,-0.96,-0.21,2.59,4.97,34.39,-21.32,-20.10,82923206
-2.03,-13.01,-1.22,-0.09,1.73,4.70,32.49,-26.82,-17.73,82923240
2.89,-7.08,-3.80,0.24,2.78,5.14,28.38,-33.08,-14.43,82923274
7.18,-4.30,-12.37,-0.05,2.51,3.83,24.44,-36.66,-13.55,82923308
8.53,-4.72,-10.10,-0.19,3.47,1.96,21.18,-38.47,-10.25,82923342
6.37,-7.46,-4.89,-0.51,4.66,2.42,15.86,-40.85,-8.59,82923376
-3.53,-18.30,-6.15,-1.78,5.90,3.34,9.34,-42.91,-7.64,82923411
-2.87,-15.95,-2.40,-1.21,4.45,2.68,2.63,-44.34,-8.27,82923445
1.36,-12.86,-1.19,-0.65,3.08,2.90,-2.62,-44.21,-9.24,82923479
-3.56,-14.57,-4.00,-0.54,2.64,3.18,-7.02,-43.93,-9.69,82923513
-1.26,-1.96,-5.97,0.18,2.01,2.66,-11.49,-42.96,-11.53,82923547
0.47,-2.10,-8.65,-0.04,2.52,3.40,-15.77,-41.79,-13.01,82923582
2.90,-7.11,-6.60,-0.33,3.24,3.57,-20.99,-38.94,-15.70,82923616
3.78,-6.53,-3.20,-0.12,2.30,2.56,-24.38,-37.23,-18.49,82923650
8.13,-13.53,-1.18,-0.73,1.20,2.35,-26.53,-35.28,-20.55,82923684
5.39,-12.58,-6.71,-0.84,2.37,2.06,-28.85,-33.10,-23.74,82923718
3.80,-12.25,-9.17,-0.91,2.84,2.23,-29.85,-31.42,-26.91,82923752
3.05,-8.74,-5.71,-0.47,3.37,2.74,-31.22,-28.09,-31.41,82923787
-0.57,-5.27,-6.16,-0.51,3.47,3.77,-32.26,-24.23,-35.52,82923821
-4.75,-5.36,-3.02,-0.05,3.84,4.38,-32.39,-19.50,-38.18,82923855
-13.18,-18.38,-4.56,-1.22,1.91,4.75,-31.63,-14.16,-42.18,82923889
3.23,-11.25,-0.98,0.35,1.15,3.23,-31.66,-10.30,-43.61,82923923
6.80,-9.34,-2.79,0.35,0.66,2.63,-30.78,-7.32,-44.07,82923958
5.43,-9.23,-9.46,0.07,0.03,1.17,-31.25,-5.45,-43.79,82923992
5.80,-6.10,-12.47,0.15,0.29,0.43,-30.82,-5.31,-44.01,82924026
6.48,-6.51,-8.39,-0.33,2.32,1.30,-29.22,-3.67,-46.17,82924060
1.09,-10.33,-6.33,-0.55,3.22,1.60,-26.34,-1.48,-48.93,82924094
2.09,-9.95,-6.40,-0.57,2.71,0.91,-23.12,0.66,-50.98,82924128
7.34,-4.48,-4.55,-0.77,3.45,0.93,-19.39,1.64,-52.85,82924163
2.16,-10.92,-7.55,-1.39,4.00,1.66,-14.66,3.22,-54.66,82924197
6.11,-5.18,0.19,-0.07,3.03,0.85,-10.11,4.97,-55.51,82924231
-10.28,-8.26,-10.22,-1.15,2.59,2.16,-5.69,5.71,-55.09,82924265
-2.01,-8.23,-8.84,0.27,0.81,1.00,-3.26,5.79,-55.73,82924299
-1.54,-3.90,-8.01,0.09,2.12,2.26,-0.13,6.58,-55.99,82924333
-6.91,-6.15,-3.16,-0.59,1.82,4.22,4.36,6.11,-55.39,82924368
-6.41,-11.00,-3.01,-0.14,1.10,3.61,8.89,5.36,-54.12,82924402
6.19,-3.88,-4.72,0.46,0.53,2.30,10.58,4.88,-53.74,82924436
8.94,-3.76,-9.88,-0.71,3.14,3.44,14.79,4.30,-53.07,82924470
9.02,-8.53,-8.61,-1.14,4.41,2.44,20.18,3.83,-49.90,82924504
8.82,-20.50,-10.33,-2.35,5.00,-0.26,24.17,5.10,-43.96,82924539
0.52,-13.96,-6.15,-2.72,5.73,-1.81,27.01,8.86,-36.41,82924573
2.51,-10.76,-6.40,-2.78,4.44,-2.74,27.32,11.79,-30.12,82924607
30.58,24.91,0.84,-0.89,0.09,-1.99,26.18,13.58,-26.67,82924641
-33.24,-10.57,-4.85,1.47,4.59,0.09,25.80,14.03,-23.90,82924675
19.15,-10.69,-10.73,-0.66,-2.87,-1.93,24.35,15.80,-25.87,82924709
6.44,-5.46,-12.18,0.64,-1.76,-1.02,22.98,16.31,-28.52,82924744
7.80,-5.45,-11.93,0.64,0.91,0.62,23.69,16.05,-27.52,82924778
3.13,-11.52,-10.16,0.15,3.07,1.32,25.42,14.88,-24.38,82924812
-6.23,-18.12,-5.36,0.66,2.13,1.40,26.45,13.64,-21.95,82924846
-3.68,-13.80,-5.04,1.10,-1.21,0.67,27.83,12.73,-22.38,82924880
1.56,-6.22,-3.25,1.18,-2.34,2.01,29.17,10.83,-26.16,82924915
2.34,2.12,4.64,0.98,0.12,4.95,31.86,5.88,-26.44,82924949
30.15,10.04,-11.65,0.21,0.19,5.78,34.46,-1.27,-25.81,82924983
14.39,-13.16,-1.43,-0.59,1.12,5.35,36.66,-8.99,-23.75,82925017
6.13,-8.23,2.43,0.04,0.74,3.42,36.89,-14.09,-22.35,82925051
3.41,-7.20,-3.26,0.38,-0.20,2.35,36.31,-17.71,-22.26,82925085
31.52,-18.79,-11.55,2.37,0.85,-2.19,36.57,-18.08,-23.27,82925120
1.35,-25.47,-6.57,-7.77,-1.74,3.42,35.74,-21.91,-20.23,82925154
-4.37,0.18,-0.54,1.71,1.91,1.41,34.36,-24.12,-18.37,82925188
-1.81,-9.11,-3.99,0.11,1.60,1.86,33.63,-26.72,-15.43,82925222
-0.17,-10.17,-1.28,0.19,2.68,2.24,31.29,-29.19,-12.50,82925256
-5.41,-16.06,3.25,0.37,1.69,1.70,28.71,-31.80,-10.22,82925291
3.56,-7.18,-6.09,0.44,0.31,1.39,27.65,-33.15,-10.07,82925325
7.26,-15.25,-1.16,0.68,1.59,2.59,24.64,-35.27,-8.42,82925359
6.99,-9.04,-2.74,0.86,0.15,1.87,22.23,-36.38,-7.15,82925393
10.83,-13.28,-5.63,0.66,0.29,1.27,20.10,-37.08,-5.47,82925427
3.23,-8.10,-4.30,0.99,1.57,1.58,17.99,-37.58,-3.80,82925461
0.70,-8.56,-3.14,0.67,1.24,1.27,15.42,-38.40,-2.97,82925496
0.81,-8.91,-3.76,0.41,0.78,0.87,13.77,-38.21,-2.21,82925530
0.11,-8.51,-4.98,0.41,1.14,0.87,11.91,-38.31,-1.04,82925564
-1.78,-8.67,-3.89,0.41,1.69,0.93,9.88,-38.41,-0.10,82925598
-2.72,-8.31,-3.50,0.32,1.73,0.91,7.60,-38.72,0.54,82925632
-2.63,-9.57,-3.33,0.20,1.67,1.17,5.61,-38.91,1.13,82925666
-2.00,-9.44,-2.96,0.23,1.73,1.46,1.62,-38.23,1.15,82925701
0.54,-9.84,-3.76,0.28,2.00,1.85,-1.34,-37.99,1.43,82925735
1.95,-8.34,-4.76,0.36,2.87,2.17,-6.40,-37.59,0.99,82925769
0.20,-9.73,-6.55,0.28,3.50,2.10,-11.11,-36.45,-0.23,82925803
-0.66,-13.42,-4.66,0.60,3.38,0.96,-14.66,-35.60,-0.44,82925837
0.56,-12.97,-3.10,0.96,1.68,-0.79,-16.82,-35.06,-1.13,82925872
1.17,-11.45,-3.88,1.25,1.26,-1.48,-17.01,-35.66,-0.56,82925906
1.90,-10.06,-4.06,1.56,1.53,-1.72,-16.49,-34.87,0.45,82925940
1.70,-8.39,-3.26,1.78,2.28,-1.35,-16.52,-33.73,0.80,82925974
1.03,-7.87,-2.87,1.88,2.38,-1.15,-18.23,-32.94,0.73,82926008
0.99,-7.03,-2.61,1.80,1.88,-1.03,-19.07,-32.26,0.80,82926042
2.41,-6.78,-4.13,1.68,1.50,-0.87,-20.20,-31.03,1.67,82926077
2.42,-5.71,-4.62,1.58,0.98,-0.65,-21.43,-29.83,2.92,82926111
1.21,-4.81,-2.87,1.13,0.05,-0.74,-21.18,-29.10,2.79,82926145
10.00,-5.25,5.00,0.54,-1.90,-1.37,-19.86,-28.75,4.53,82926179
1.92,-3.72,-15.76,0.77,-4.38,-1.86,-14.62,-30.96,7.59,82926213
7.03,-25.90,-21.45,-6.93,-2.72,-1.45,-12.31,-34.68,5.25,82926248
-20.29,-9.24,8.15,-2.03,1.12,1.98,-13.31,-31.66,7.10,82926282
-0.83,-7.17,-2.89,-0.20,-1.90,0.33,-12.04,-31.99,7.70,82926316
0.59,-6.99,-2.27,-0.01,-0.96,1.17,-11.08,-31.82,7.60,82926350
-1.88,-8.76,-5.20,-0.08,-0.64,1.25,-11.85,-31.19,7.88,82926384
1.10,-9.84,-4.27,0.02,-0.99,0.81,-11.47,-31.61,7.69,82926418
-0.39,-8.67,-4.22,0.21,-0.35,0.76,-11.40,-31.09,7.97,82926453
-2.69,-7.98,-4.17,0.19,-0.61,0.15,-11.58,-30.52,7.94,82926487
-2.93,-9.37,-3.18,0.23,-0.55,0.03,-10.73,-30.28,8.29,82926521
-3.15,-9.24,-2.95,0.26,-0.52,-0.10,-10.17,-30.34,8.24,82926555
-1.81,-9.51,-3.26,0.23,-0.42,-0.14,-9.65,-30.24,8.30,82926589
5.94,-11.36,-4.76,-0.06,-0.70,0.21,-9.34,-29.63,9.12,82926624
-0.81,-8.86,-5.98,0.66,-0.33,0.40,-9.13,-29.06,9.05,82926658
4.60,-16.12,-3.54,0.21,-1.20,-0.61,-7.70,-28.82,9.24,82926692
6.68,-27.26,6.48,0.12,-2.40,-1.63,-3.65,-29.39,10.30,82926726
-1.56,-5.93,-9.30,0.65,-1.05,-2.24,-1.52,-29.23,10.35,82926760
3.81,-8.35,-3.34,0.37,-0.25,-3.03,0.80,-28.56,10.82,82926794
3.14,-4.58,-4.97,-0.17,-0.28,-3.10,3.11,-28.37,10.35,82926829
2.68,-7.00,-3.36,-0.89,-0.38,-3.13,4.98,-28.76,9.56,82926863
-0.22,-7.00,-1.14,-0.80,-0.21,-2.50,6.66,-29.67,9.44,82926897
2.15,-7.64,-0.66,-0.82,-0.41,-2.12,7.89,-29.39,8.55,82926931
1.64,-8.16,-0.67,-0.85,-0.50,-1.48,9.47,-30.49,8.67,82926965
2.05,-8.83,-1.03,-0.77,-0.66,-1.12,10.73,-31.10,7.28,82927000
3.62,-8.25,-1.95,-0.60,-0.86,-0.66,12.09,-31.79,6.59,82927034
4.80,-8.34,-1.90,-0.43,-0.63,-0.21,12.54,-32.40,6.18,82927068
3.48,-7.76,-2.38,-0.35,-0.40,0.12,12.77,-32.49,5.12,82927102
4.03,-7.69,-3.11,-0.43,-0.49,0.25,13.34,-33.47,5.41,82927136
3.60,-7.41,-3.62,-0.56,-0.29,0.48,12.96,-34.38,4.47,82927170
1.94,-7.91,-3.84,-0.57,-0.04,0.83,12.95,-35.36,3.83,82927205
2.05,-8.58,-5.05,-0.59,-0.07,1.15,11.65,-36.19,3.27,82927239
17.68,-8.81,-20.48,-1.32,-1.07,1.03,10.60,-37.77,2.05,82927273
-6.74,-0.60,-3.44,2.01,1.52,1.57,8.48,-38.07,1.89,82927307
-0.60,-7.88,-3.03,-0.24,0.22,1.30,7.23,-38.94,1.23,82927341
1.85,-7.03,-4.32,-0.37,0.30,1.68,5.51,-39.61,0.20,82927375
4.98,-7.69,-4.66,-0.26,0.45,2.00,2.78,-40.19,-0.35,82927410
5.48,-7.44,-5.36,-0.47,0.86,2.12,0.73,-40.40,-0.58,82927444
4.93,-8.58,-6.05,-0.74,1.25,2.33,-3.16,-41.36,-2.46,82927478
1.91,-7.14,-4.16,-0.41,1.46,2.55,-7.23,-41.19,-2.88,82927512
0.41,-8.11,-3.25,-0.16,0.51,2.07,-9.98,-40.78,-3.61,82927546
0.04,-10.34,-5.75,-0.16,0.20,2.00,-12.69,-40.02,-3.42,82927581
1.77,-6.24,-7.56,-0.25,1.49,2.30,-15.07,-38.97,-4.68,82927615
-1.52,-6.52,-5.82,-0.15,2.60,3.04,-19.26,-37.37,-7.35,82927649
-3.51,-8.14,-6.38,-0.14,2.53,2.79,-23.34,-35.22,-8.80,82927683
0.20,-6.89,-3.87,0.10,1.88,2.35,-25.52,-34.03,-10.89,82927717
-3.34,-6.91,-5.49,-0.08,2.32,2.67,-29.47,-30.77,-14.25,82927751
-2.93,-8.95,-7.67,-0.25,3.09,2.80,-31.75,-28.28,-17.54,82927786
-2.51,-7.97,-5.51,-0.13,3.75,2.81,-34.05,-25.36,-21.84,82927820
-1.78,-10.28,-3.56,-0.14,3.48,3.23,-35.84,-21.76,-26.21,82927854
0.32,-11.36,-5.42,-0.03,3.03,2.70,-36.38,-18.49,-30.46,82927888
0.08,-6.93,-4.31,0.18,3.23,2.96,-35.81,-14.64,-34.57,82927922
-1.87,-10.06,-2.20,0.22,2.91,3.48,-35.69,-10.79,-37.66,82927957
2.12,-8.29,-4.46,0.46,2.12,2.67,-34.29,-7.51,-40.27,82927991
0.03,-4.92,-9.36,0.12,2.90,2.64,-31.92,-4.94,-43.67,82928025
1.37,-4.76,-8.19,-0.08,4.10,3.31,-28.94,-1.94,-47.82,82928059
0.09,-9.47,-7.67,-0.36,4.65,3.33,-23.18,2.13,-51.45,82928093
1.24,-12.12,-4.77,-0.64,4.17,2.73,-18.17,4.14,-53.80,82928127
-0.93,-11.33,-3.09,-0.52,3.48,2.57,-13.26,5.67,-54.87,82928162
-7.08,-11.09,-6.48,-0.39,3.57,3.29,-7.16,7.32,-56.12,82928196
-8.52,-11.19,-1.69,-0.05,3.45,3.59,-1.58,8.13,-55.35,82928230
-4.89,-7.59,-0.88,0.08,3.43,4.48,5.85,6.90,-54.43,82928264
-1.91,-9.30,-5.02,-0.40,3.71,4.84,12.04,5.96,-52.88,82928298
-1.34,-5.77,-6.17,0.29,4.07,4.10,18.68,3.71,-50.29,82928333
5.91,-8.22,-5.25,-0.27,3.67,3.17,24.39,1.24,-46.68,82928367
4.04,-8.65,-2.56,-0.15,3.67,2.74,27.93,-1.32,-42.77,82928401
-2.81,-11.88,-3.17,-0.61,3.48,2.89,31.53,-4.30,-38.29,82928435
3.41,-12.70,-2.98,-0.78,3.68,3.51,33.69,-7.59,-33.47,82928469
-1.59,-8.29,-3.77,-0.58,4.14,4.34,35.71,-12.66,-28.53,82928503
-0.03,-10.22,-4.48,-0.46,4.18,4.44,35.37,-19.04,-22.32,82928538
4.62,-8.08,-3.20,-0.21,3.70,3.55,33.59,-23.87,-18.11,82928572
3.22,-8.50,-2.70,-0.31,3.04,3.29,31.44,-28.56,-13.97,82928606
1.53,-5.42,-6.90,-0.07,3.25,3.54,27.36,-32.04,-10.96,82928640
-7.67,-2.75,-6.77,-0.03,3.45,4.26,23.95,-35.37,-8.73,82928674
-5.97,-12.70,-5.43,-0.15,3.24,4.63,16.97,-39.42,-6.37,82928708
-2.66,-9.73,-1.57,0.34,2.72,3.76,10.92,-40.88,-5.19,82928743
-0.05,-9.72,-0.26,0.51,1.75,3.06,5.47,-41.86,-4.71,82928777
3.36,-10.17,-6.88,0.30,0.96,1.89,3.04,-41.96,-5.03,82928811
9.45,-5.84,-11.31,0.15,1.38,0.42,1.77,-41.92,-3.92,82928845
9.12,-4.45,-7.24,0.13,2.34,0.59,-1.58,-42.08,-4.62,82928879
0.31,-12.23,-7.25,-0.31,3.01,1.76,-5.39,-41.98,-6.11,82928914
0.25,-10.33,-8.62,-0.16,2.53,0.67,-7.83,-42.12,-6.78,82928948
2.69,-4.00,-3.76,0.11,2.31,0.94,-10.79,-41.52,-7.04,82928982
-1.20,-9.93,-6.39,-0.18,1.96,1.52,-13.58,-40.66,-8.94,82929016
-0.76,-7.89,-4.52,0.37,0.93,0.33,-15.59,-40.46,-9.21,82929050
7.35,-3.76,-4.00,0.35,0.65,-0.08,-16.14,-40.47,-9.95,82929084
3.60,-5.94,-9.42,-0.37,3.49,1.85,-18.11,-40.00,-11.87,82929119
-2.13,-6.70,-9.75,-0.38,4.28,2.46,-22.11,-38.15,-15.51,82929153
-1.33,-7.55,-3.69,-0.02,2.56,1.66,-24.73,-36.26,-18.04,82929187
-2.22,-9.10,-6.40,0.04,2.37,2.16,-27.23,-34.77,-20.45,82929221
-5.80,-7.23,0.35,0.71,2.90,2.88,-29.55,-31.73,-22.54,82929255
-6.94,-11.60,-1.11,0.31,2.58,4.16,-32.07,-28.35,-25.84,82929290
-1.68,-6.82,-2.48,0.60,2.54,4.51,-34.67,-22.19,-28.60,82929324
0.46,-4.75,-4.93,0.89,2.40,3.77,-35.71,-18.39,-31.16,82929358
10.24,-3.92,-3.74,0.53,3.52,3.62,-34.99,-14.35,-35.60,82929392
-3.61,-5.00,-3.37,0.39,3.51,2.60,-33.73,-11.33,-38.97,82929426
-12.00,-11.36,-6.70,0.11,1.45,1.58,-32.55,-9.92,-40.65,82929460
-12.33,-27.95,-1.38,-0.71,3.49,3.06,-30.84,-6.78,-44.14,82929495
1.33,-14.94,-3.25,0.71,2.60,2.46,-28.46,-4.85,-46.62,82929529
13.38,-7.83,-0.60,0.63,1.84,1.40,-26.10,-3.29,-49.02,82929563
7.91,-6.93,-5.44,-0.23,1.42,0.90,-24.58,-2.28,-50.10,82929597
1.17,-4.42,-4.66,0.43,1.45,0.80,-23.02,-2.40,-51.53,82929631
-5.54,-11.39,-6.91,0.27,0.20,0.00,-22.10,-1.84,-51.34,82929666
-6.39,-8.98,-7.29,0.61,-0.86,-0.65,-22.49,-2.48,-51.15,82929700
-1.61,-7.25,-5.46,0.63,-1.20,-1.50,-24.42,-4.06,-50.88,82929734
-0.76,-8.54,-3.40,0.32,-0.32,-1.70,-24.54,-5.26,-51.11,82929768
-1.86,-9.38,-2.94,0.13,0.16,-1.82,-24.63,-7.21,-51.07,82929802
-3.35,-8.36,-5.94,0.08,0.29,-1.87,-24.26,-8.77,-51.81,82929836
-2.80,-10.89,-7.06,-0.07,0.41,-1.66,-24.04,-9.88,-52.03,82929871
-1.54,-8.47,-6.13,0.12,0.22,-1.51,-23.27,-11.75,-52.29,82929905
3.16,-5.02,-5.16,0.33,-0.10,-1.50,-23.21,-12.60,-52.65,82929939
-1.55,-6.97,-3.98,0.37,0.43,-1.14,-22.74,-13.48,-53.08,82929973
-2.83,-6.50,-3.98,0.39,-0.82,-1.37,-22.67,-15.00,-52.32,82930007
0.13,-7.49,-4.68,0.39,-1.60,-1.28,-23.66,-16.56,-51.70,82930041
-0.76,-8.35,-3.38,0.54,-1.08,-0.80,-24.12,-17.36,-49.71,82930076
-2.49,-7.62,-4.28,0.65,-1.09,-0.19,-24.98,-18.34,-49.46,82930110
-2.10,-7.81,-3.62,0.70,-1.37,0.19,-26.48,-19.01,-48.10,82930144
-3.81,-7.30,-3.82,0.55,-1.75,0.52,-27.27,-18.69,-45.32,82930178
-2.33,-6.66,-3.79,0.59,-2.18,1.16,-29.48,-18.68,-43.36,82930212
-1.72,-6.83,-3.44,0.81,-2.49,1.65,-31.98,-17.00,-40.13,82930247
-1.78,-6.70,-3.75,0.84,-2.97,1.77,-33.78,-15.57,-37.17,82930281
3.02,-7.28,-6.25,0.63,-4.01,1.41,-35.91,-14.09,-33.09,82930315
-4.13,-6.42,-21.90,-5.53,-4.63,-0.18,-37.28,-13.83,-26.69,82930349
-11.37,-15.86,-5.38,-1.91,0.95,0.89,-37.05,-13.80,-27.26,82930383
-0.43,-6.36,-4.86,0.31,-2.21,-0.95,-37.33,-14.72,-23.55,82930417
4.01,-10.80,-7.93,-0.28,-2.41,-1.22,-37.20,-16.28,-21.32,82930452
-1.29,-7.46,2.24,0.55,0.51,-0.72,-37.05,-16.85,-22.89,82930486
-5.63,-10.71,1.38,0.16,-0.65,-0.92,-36.92,-18.14,-22.43,82930520
-5.97,-10.01,0.84,0.10,0.05,-0.47,-36.58,-18.69,-22.11,82930554
-7.78,-9.42,-0.57,-0.01,0.23,-0.54,-36.16,-19.29,-22.23,82930588
-1.94,-9.32,-7.87,-0.05,-0.20,-0.42,-36.60,-19.51,-22.64,82930623
8.20,-5.53,-7.50,0.92,-1.27,0.76,-36.23,-19.06,-21.05,82930657
7.92,-13.80,-3.84,0.55,-1.90,0.34,-36.16,-17.77,-19.28,82930691
7.94,-13.23,-1.58,0.24,-0.92,0.08,-36.03,-17.92,-17.41,82930725
5.83,-11.87,-2.68,0.05,0.15,-0.50,-35.60,-17.95,-17.45,82930759
0.43,-10.83,-3.44,-0.48,1.07,-0.86,-35.55,-18.97,-19.06,82930793
-4.67,-7.84,-0.27,-0.31,1.59,-0.71,-35.88,-19.63,-21.16,82930828
-1.95,-6.38,-2.92,-0.35,0.65,-1.07,-35.50,-20.99,-22.23,82930862
-2.01,-10.18,-1.98,-0.13,1.10,-0.69,-35.76,-21.79,-23.17,82930896
0.06,-10.31,-1.64,-0.34,0.86,-0.88,-35.08,-22.30,-24.96,82930930
0.84,-10.42,-1.43,-0.49,1.57,-0.74,-34.87,-23.81,-27.35,82930964
0.08,-11.10,-1.46,-0.62,1.34,-0.92,-34.04,-24.26,-29.49,82930999
3.30,-11.03,-2.89,-0.61,0.48,-1.17,-33.24,-25.53,-30.91,82931033
5.82,-7.51,-1.75,-0.70,0.80,-1.17,-32.42,-26.48,-31.98,82931067
6.37,-6.78,-3.32,-1.03,1.31,-1.17,-31.48,-27.29,-33.78,82931101
5.67,-6.34,-5.44,-1.31,2.14,-0.94,-29.66,-28.08,-37.07,82931135
6.61,-7.29,-3.52,-1.14,3.19,-0.62,-28.15,-27.48,-40.57,82931169
3.73,-8.48,-2.66,-0.86,3.70,-0.44,-25.08,-27.48,-45.73,82931204
2.60,-7.99,-2.31,-0.70,2.91,-0.53,-22.49,-27.54,-48.48,82931238
3.97,-7.45,-3.60,-0.65,2.57,-0.27,-19.72,-26.94,-50.25,82931272
3.51,-7.52,-4.28,-0.42,3.10,0.21,-15.97,-26.24,-52.94,82931306
3.97,-8.46,-3.58,-0.45,3.11,0.53,-13.27,-25.56,-54.81,82931340
4.54,-8.47,-3.38,-0.58,2.95,0.73,-9.84,-24.39,-55.96,82931375
4.82,-8.23,-2.77,-0.72,2.88,0.86,-6.34,-23.90,-56.62,82931409
4.30,-7.60,-1.68,-0.68,3.01,0.94,-3.54,-22.52,-57.78,82931443
5.35,-7.97,-1.23,-0.80,2.71,0.81,0.41,-21.32,-58.54,82931477
3.56,-7.94,-0.45,-0.77,2.36,0.86,3.11,-20.15,-57.64,82931511
4.22,-7.62,-0.60,-0.63,2.23,0.95,5.50,-19.18,-58.10,82931545
3.79,-7.80,-0.20,-0.49,2.27,1.06,8.64,-19.03,-57.48,82931580
2.91,-9.22,-0.08,-0.38,1.72,0.87,10.60,-19.07,-56.37,82931614
2.27,-9.22,-1.02,-0.19,1.34,0.70,12.79,-19.28,-55.12,82931648
2.87,-8.35,-0.73,0.04,0.75,0.39,13.56,-19.23,-55.45,82931682
1.56,-7.30,-1.00,-0.02,0.53,0.36,14.54,-19.60,-54.95,82931716
3.13,-7.62,-1.84,-0.15,0.40,0.52,14.62,-19.42,-54.43,82931750
1.20,-6.73,-0.89,-0.39,0.14,0.53,15.07,-19.26,-54.14,82931785
3.87,-2.43,-4.90,-0.92,-1.89,-0.17,13.71,-18.87,-55.01,82931819
-0.49,4.38,-2.92,1.99,-0.03,1.00,12.96,-17.82,-56.30,82931853
1.03,-8.93,-1.16,-0.59,-1.01,0.01,11.39,-16.94,-56.49,82931887
0.51,-5.61,3.33,-0.62,-0.96,0.64,10.65,-17.00,-57.03,82931921
-5.14,-39.20,-12.97,-4.39,-1.40,1.68,8.52,-14.18,-58.36,82931956
-9.09,2.90,1.29,-0.09,0.42,0.09,8.10,-15.21,-57.63,82931990
2.01,-3.88,-6.55,0.98,-1.07,-0.68,7.15,-13.27,-58.49,82932024
0.67,-11.79,-2.46,-0.39,-1.28,0.11,6.50,-12.73,-58.42,82932058
-0.09,-11.25,-2.13,-0.14,-1.33,0.24,4.74,-12.34,-58.99,82932092
0.01,-10.77,-0.72,-0.12,-1.47,0.24,3.22,-11.97,-59.65,82932126
-0.88,-9.30,-3.04,0.08,-1.92,0.11,0.96,-11.24,-59.76,82932161
-1.56,-9.53,-4.63,0.01,-1.60,0.62,-1.42,-11.28,-59.38,82932195
-4.43,-11.40,-3.56,-0.08,-1.27,1.14,-3.19,-10.98,-60.32,82932229
-5.07,-10.58,-2.18,0.08,-1.66,1.14,-4.72,-9.84,-59.97,82932263
-5.93,-8.51,-2.06,0.36,-1.63,1.14,-7.10,-9.59,-58.83,82932297
-7.56,-9.83,-2.57,0.19,-1.53,1.36,-8.51,-8.62,-59.02,82932332
-2.85,-11.60,-4.60,-0.18,-1.28,1.23,-10.11,-7.50,-59.76,82932366
5.11,-8.57,-6.26,-0.08,-1.03,1.06,-11.09,-6.85,-59.22,82932400
5.43,-6.98,-9.03,0.24,0.07,0.92,-10.61,-5.60,-60.23,82932434
1.92,-10.21,-3.26,0.61,1.08,1.78,-9.94,-5.48,-60.51,82932468
3.73,-9.85,-3.80,0.94,-0.87,0.42,-9.75,-6.07,-59.70,82932502
10.24,-11.53,-5.33,0.89,-1.47,-0.84,-11.65,-6.62,-59.46,82932537
7.79,-10.41,-4.88,0.70,-1.10,-1.90,-12.26,-8.54,-59.46,82932571
6.65,-9.47,-4.40,0.75,0.51,-2.04,-12.64,-10.22,-59.97,82932605
4.35,-8.74,-3.24,0.81,1.68,-2.10,-10.83,-12.09,-60.76,82932639
2.29,-8.63,-2.32,0.86,2.16,-2.08,-6.81,-14.50,-60.98,82932673
1.31,-9.00,-2.44,0.78,1.64,-2.32,-4.15,-15.83,-60.87,82932708
1.47,-8.33,-2.81,0.56,0.73,-2.58,-2.18,-16.66,-60.58,82932742
1.67,-7.42,-3.03,0.24,0.01,-2.69,-1.33,-17.64,-60.52,82932776
-25.75,-17.06,-6.40,-2.68,0.26,-1.79,-1.07,-16.65,-59.89,82932810
0.38,-7.16,-2.59,0.45,-0.53,-1.71,-2.06,-17.47,-60.71,82932844
0.64,-5.21,0.82,-0.54,0.06,-0.54,-1.51,-16.81,-60.87,82932878
-4.39,-7.81,3.26,-0.73,0.32,0.99,-1.48,-15.89,-60.86,82932913
-6.78,-12.80,-0.14,-0.69,-0.62,1.85,-2.18,-14.50,-60.33,82932947
8.18,-29.55,-20.20,-3.96,-2.25,0.38,-4.28,-11.88,-60.68,82932981
-7.50,-9.60,-10.37,-2.64,0.20,0.86,-3.58,-13.36,-60.57,82933015
5.38,-17.78,-6.48,-1.05,-0.80,0.21,-4.69,-12.72,-60.76,82933049
2.35,-11.97,-6.46,-0.41,-0.21,0.26,-4.82,-12.34,-61.09,82933083
1.21,-9.49,-4.25,-0.12,-0.03,0.35,-4.33,-12.45,-60.39,82933118
1.94,-7.92,-4.04,0.16,0.09,0.21,-4.06,-12.51,-60.26,82933152
1.94,-8.80,-3.26,0.20,0.45,-0.10,-3.65,-12.63,-60.77,82933186
1.59,-9.78,-3.21,0.46,0.52,-0.91,-3.29,-12.95,-61.18,82933220
-1.81,-8.62,-5.90,0.39,0.54,-1.22,-1.59,-13.56,-61.63,82933254
-4.24,-14.70,-9.15,0.35,0.64,-0.82,-0.19,-13.69,-60.76,82933289
-2.68,-18.17,-10.91,0.36,0.64,-1.03,0.31,-14.03,-60.41,82933323
5.12,-13.80,-7.10,0.47,0.05,-1.40,0.85,-14.19,-60.51,82933357
4.99,0.43,3.55,1.73,1.00,-1.02,1.89,-15.48,-60.44,82933391
15.20,6.23,-9.62,-0.08,-1.71,-1.91,0.75,-16.27,-60.55,82933425
-4.74,-8.88,1.76,0.03,-3.15,-2.02,-2.72,-15.38,-60.45,82933459
9.67,-1.23,-3.86,-0.05,-4.03,-1.61,-8.13,-15.86,-59.85,82933494
7.62,-7.90,-2.97,-0.25,-2.51,-0.80,-10.92,-15.14,-59.41,82933528
2.65,-8.15,-3.43,0.00,-1.22,-0.30,-13.05,-15.07,-59.21,82933562
3.15,-6.60,-3.27,-0.35,-2.03,-0.81,-14.95,-15.30,-57.47,82933596
4.15,-6.22,-4.10,-0.73,-2.11,-0.67,-17.76,-14.51,-57.18,82933630
2.78,-4.99,-4.97,-0.70,-1.01,0.01,-18.93,-14.19,-56.07,82933665
3.32,-7.72,-3.92,-0.62,-0.05,0.51,-19.37,-13.08,-55.73,82933699
2.12,-8.01,-2.28,-0.22,0.40,1.08,-19.13,-12.16,-55.83,82933733
-13.72,-15.17,-12.11,-1.23,3.35,2.27,-18.61,-9.75,-57.80,82933767
0.40,-12.91,0.18,-0.26,0.94,0.98,-16.33,-10.57,-58.13,82933801
5.55,-8.52,0.92,0.78,0.72,0.78,-15.68,-11.14,-57.38,82933835
2.63,-10.37,-1.67,0.79,-0.36,0.36,-15.10,-11.46,-58.24,82933870
3.69,-7.52,-5.18,0.87,-1.24,-0.18,-16.59,-12.03,-57.44,82933904
3.57,-5.53,-7.26,1.13,-1.05,0.08,-18.33,-12.58,-57.16,82933938
0.27,-10.33,-3.91,1.33,-1.65,0.10,-20.08,-13.40,-56.36,82933972
0.72,-10.72,-2.53,1.96,-3.21,-0.53,-23.03,-15.90,-52.97,82934006
1.74,-6.95,-9.18,2.07,-4.41,-1.49,-26.59,-18.24,-45.85,82934041
-1.44,-5.72,-7.95,2.02,-4.13,-1.38,-30.33,-20.97,-44.17,82934075
-3.52,-9.68,-5.17,1.85,-4.24,-1.13,-32.62,-23.05,-39.48,82934109
-5.50,-11.06,-5.06,1.90,-4.84,-1.31,-33.70,-25.27,-31.91,82934143
-4.00,-9.03,-7.51,1.61,-5.14,-1.34,-34.41,-27.26,-25.01,82934177
-5.29,-6.48,-10.05,1.43,-4.79,-1.29,-33.34,-28.02,-15.24,82934211
-6.64,-7.91,-10.76,1.24,-4.79,-0.78,-31.37,-28.46,-11.94,82934246
-3.31,-7.26,-9.41,1.36,-5.43,-1.08,-27.99,-28.35,-6.65,82934280
1.43,-10.69,-13.12,1.06,-6.14,-2.11,-21.62,-29.39,1.30,82934314
1.59,-6.91,-14.91,1.27,-5.67,-3.01,-15.05,-29.92,4.62,82934348
4.09,-3.37,-13.89,1.07,-4.17,-2.49,-8.59,-29.92,11.17,82934382
0.20,-8.07,-5.11,1.45,-3.81,-2.00,-2.34,-29.07,8.54,82934416
-3.84,-12.01,-0.89,1.49,-4.42,-1.54,3.42,-27.83,9.60,82934451
-1.50,-12.09,-6.43,1.89,-6.12,-2.27,11.50,-25.46,8.17,82934485
-2.42,-4.11,-15.10,1.97,-5.98,-2.77,18.39,-22.90,5.64,82934519
-0.49,-7.74,-17.04,1.72,-5.28,-2.38,23.78,-20.59,2.22,82934553
0.35,-14.12,-13.87,1.59,-5.51,-2.67,28.46,-17.33,-3.92,82934587
-10.23,-6.14,-15.36,1.80,-5.70,-2.70,32.37,-13.83,-9.12,82934622
-8.80,-1.51,-14.92,2.77,-7.68,-3.03,35.06,-9.50,-19.56,82934656
-4.54,-15.30,-13.46,2.23,-9.02,-3.29,34.77,-6.75,-28.65,82934690
-13.24,3.47,-7.01,2.96,-7.56,-1.88,32.02,-5.58,-38.07,82934724
0.68,-7.45,-21.58,1.41,-8.80,-0.84,26.12,-5.20,-48.39,82934758
10.60,0.85,-21.18,0.92,-7.41,-1.23,18.94,-5.04,-52.89,82934792
-4.80,-7.94,-21.27,0.06,-5.44,-0.37,12.25,-5.73,-56.64,82934827
2.67,-7.60,-12.45,0.79,-3.49,-1.19,8.20,-5.12,-58.86,82934861
9.18,-5.65,-5.62,0.66,-3.66,-0.59,4.55,-5.92,-58.92,82934895
1.78,-10.93,-4.27,0.54,-2.78,-0.41,0.56,-5.80,-59.79,82934929
-0.99,-8.92,-8.50,0.36,-2.38,-0.69,-2.79,-5.63,-60.17,82934963
-1.85,-5.21,-13.30,0.29,-2.69,-1.24,-6.59,-5.95,-59.76,82934998
2.22,-4.96,-10.64,0.46,-2.97,-1.69,-9.98,-6.45,-59.85,82935032
1.28,-9.21,-4.06,0.38,-1.52,-0.89,-12.22,-6.75,-59.15,82935066
-1.58,-11.83,-4.82,0.42,-1.95,-1.29,-15.26,-7.61,-58.84,82935100
-3.57,-8.38,-7.50,0.88,-3.17,-3.02,-18.61,-9.12,-58.62,82935134
-6.08,-4.89,-1.28,1.25,-3.67,-1.87,-23.03,-11.82,-55.36,82935168
-5.50,-17.78,-1.31,1.28,-5.03,-1.78,-27.57,-14.07,-51.68,82935203
-3.72,-9.75,-10.94,1.34,-5.86,-3.36,-32.18,-18.01,-46.17,82935237
-10.86,-5.79,-14.92,1.41,-5.01,-2.90,-35.28,-22.93,-39.05,82935271
-10.43,-10.98,-9.18,2.23,-5.53,-1.69,-36.82,-25.61,-32.08,82935305
-13.19,-39.20,14.72,-3.06,-7.51,-3.01,-35.88,-27.78,-20.36,82935339
-20.60,14.72,-14.25,6.73,-3.78,0.76,-32.90,-27.23,-9.94,82935374
13.37,-4.25,-28.39,1.48,-15.67,-8.24,-21.40,-32.39,1.29,82935408
-10.54,-3.21,-28.23,0.51,-5.57,-3.33,-11.03,-32.64,5.69,82935442
5.09,-2.79,-14.75,1.71,-3.58,-1.01,-5.77,-30.85,7.85,82935476
-10.13,1.59,3.59,1.48,-2.84,2.08,-4.25,-27.74,9.98,82935510
9.52,-16.34,-2.02,0.07,-2.31,3.21,-2.00,-28.16,9.06,82935544
0.28,-4.19,-5.27,1.06,-1.35,1.84,-2.18,-27.61,10.51,82935579
-20.26,-21.86,-35.73,-1.23,-4.88,-0.23,3.07,-27.95,9.16,82935613
9.56,-5.15,8.42,10.10,0.11,-3.14,6.96,-24.26,10.48,82935647
-6.86,-23.25,-22.04,-1.41,-6.48,-1.30,11.22,-26.70,7.89,82935681
-18.68,-5.21,-21.41,1.46,-9.10,-1.52,18.34,-24.03,4.15,82935715
18.55,-19.31,-30.77,-1.01,-8.84,-1.84,27.01,-23.56,-3.73,82935750
7.92,-15.52,-17.86,-1.09,-7.13,-1.48,30.46,-22.90,-9.34,82935784
7.12,-7.61,-0.00,1.20,-1.93,0.59,32.08,-22.92,-12.03,82935818
-0.13,-7.74,-2.94,0.42,-3.39,-0.49,32.24,-24.00,-15.93,82935852
7.30,-11.03,-3.88,0.15,-3.60,-0.98,33.24,-23.40,-19.67,82935886
1.31,-8.96,-6.58,0.36,-2.69,-0.34,33.37,-22.74,-21.51,82935920
0.01,-10.17,-1.25,0.23,-1.60,-0.17,33.24,-22.81,-23.06,82935955
0.69,-8.83,-1.66,0.24,-2.24,-0.33,33.06,-22.49,-25.59,82935989
1.11,-8.59,-3.39,0.32,-2.45,-0.21,32.93,-22.67,-27.57,82936023
-0.99,-9.11,-3.97,0.24,-2.29,-0.04,32.70,-22.76,-30.18,82936057
0.33,-9.03,-4.77,0.17,-2.48,-0.10,32.43,-22.29,-31.88,82936091
1.86,-9.10,-4.36,0.29,-2.23,-0.05,31.50,-21.60,-34.30,82936125
0.87,-10.22,-3.81,0.24,-1.99,0.04,30.77,-21.79,-36.31,82936160
2.18,-10.86,-3.45,0.18,-2.05,-0.09,30.11,-21.85,-38.34,82936194
2.55,-8.93,-4.57,0.26,-2.03,-0.06,29.33,-21.62,-40.12,82936228
0.14,-8.34,-2.40,0.33,-1.85,0.07,28.59,-21.63,-41.65,82936262
0.94,-10.21,-3.57,0.05,-2.35,-0.27,26.92,-21.19,-44.40,82936296
2.45,-9.10,-2.71,0.12,-1.96,-0.23,25.75,-20.36,-47.12,82936331
2.88,-9.87,-2.51,0.17,-0.80,0.27,24.96,-20.39,-47.18,82936365
2.39,-8.51,-2.39,0.04,-1.20,-0.19,24.89,-20.18,-48.57,82936399
2.87,-8.25,-3.54,-0.07,-1.13,-0.20,24.58,-20.02,-49.40,82936433
3.12,-8.35,-2.35,-0.14,-1.04,-0.29,23.25,-19.19,-50.29,82936467
4.62,-9.34,-1.42,-0.25,-1.01,-0.34,23.14,-18.42,-50.92,82936501
6.08,-9.24,-0.82,-0.10,-0.13,-0.15,22.55,-17.77,-51.46,82936536
5.05,-9.31,-0.24,-0.24,0.59,-0.00,22.95,-17.85,-50.53,82936570
7.55,-8.19,-1.72,-0.50,0.41,-0.41,24.09,-17.07,-50.44,82936604
4.04,-9.27,-2.73,-0.78,1.15,-0.58,24.98,-16.31,-49.53,82936638
7.84,-6.81,-4.11,-0.66,0.81,-1.07,26.07,-14.86,-48.74,82936672
1.22,-8.84,-2.25,-1.11,1.91,-0.35,26.82,-13.36,-47.37,82936707
-1.38,-11.03,0.78,-0.79,0.90,-0.58,28.24,-12.31,-45.60,82936741
-2.34,-11.95,-3.38,-0.56,-0.12,-0.76,27.92,-11.28,-45.63,82936775
-3.02,-10.87,-4.18,-0.31,-0.28,-0.53,27.95,-10.76,-46.05,82936809
-2.22,-9.83,-3.41,-0.01,-0.65,-0.50,27.64,-10.00,-46.52,82936843
-0.23,-9.69,-3.75,0.13,-0.59,-0.43,26.79,-9.59,-46.42,82936877
0.23,-10.10,-1.38,0.35,-0.42,-0.48,26.85,-9.09,-47.53,82936912
0.48,-11.87,-1.15,0.55,-0.63,-0.78,26.57,-8.83,-48.03,82936946
-0.05,-10.47,-5.66,0.71,-0.31,-1.16,26.19,-8.07,-47.54,82936980
-6.18,-14.53,-3.92,1.16,0.01,-1.40,26.07,-7.89,-47.41,82937014
-2.14,-18.11,-7.36,1.23,-1.15,-2.39,25.77,-6.18,-48.80,82937048
3.61,-9.67,-7.69,1.67,-2.44,-2.74,23.31,-4.68,-50.07,82937083
7.75,2.70,-0.09,2.55,-2.89,-2.35,20.37,-4.87,-53.58,82937117
7.67,-0.46,-5.00,1.18,-3.76,-2.24,16.56,-4.62,-56.45,82937151
3.56,-0.34,-6.48,1.64,-5.58,-1.57,10.35,-5.58,-60.13,82937185
2.70,-4.54,-9.96,2.75,-2.36,0.55,4.97,-7.41,-61.78,82937219
7.81,-11.11,-1.88,1.29,-3.40,0.42,0.56,-10.13,-61.93,82937253
7.44,-3.69,1.78,1.65,-3.63,0.17,-3.36,-11.90,-62.03,82937288
9.22,-4.42,1.75,1.44,-3.52,0.12,-7.69,-13.75,-61.22,82937322
3.16,-8.48,-2.93,1.19,-2.77,0.65,-12.01,-14.95,-61.31,82937356
1.35,-9.39,-2.79,1.00,-3.00,0.40,-15.55,-16.21,-60.27,82937390
-0.37,-7.98,-3.02,0.86,-2.47,0.56,-18.75,-16.41,-57.95,82937424
12.21,-11.95,-24.68,-1.80,-0.81,-0.80,-20.48,-15.02,-58.42,82937458
-2.78,-4.08,3.05,-0.14,0.70,0.26,-19.13,-15.19,-58.78,82937493
3.30,-20.37,-6.91,-0.38,-0.64,-0.30,-19.15,-15.17,-57.83,82937527
1.20,-12.72,-3.41,0.07,0.14,-0.30,-19.67,-16.22,-58.40,82937561
0.09,-10.55,-0.16,0.31,0.07,-0.42,-18.99,-16.22,-58.33,82937595
0.16,-11.71,-3.66,0.41,-0.31,-0.35,-18.99,-16.54,-58.30,82937629
0.20,-8.80,-3.46,0.44,-0.29,0.00,-19.32,-17.10,-58.35,82937664
1.07,-9.54,-3.66,0.59,-0.52,0.16,-20.30,-17.14,-57.38,82937698
3.20,-8.20,-2.93,0.82,-0.90,0.12,-20.89,-17.63,-57.00,82937732
4.00,-7.20,-2.44,0.95,-1.15,0.05,-22.24,-18.90,-56.02,82937766
4.56,-8.79,-3.80,0.88,-1.32,0.05,-23.84,-18.87,-54.79,82937800
5.48,-9.46,-3.02,0.81,-1.23,-0.04,-25.36,-19.99,-53.84,82937834
4.35,-7.41,-2.70,0.71,-0.87,-0.13,-26.21,-20.36,-53.01,82937869
2.71,-8.60,-2.77,0.52,-0.68,-0.07,-26.97,-20.68,-51.90,82937903
2.36,-10.64,-3.88,0.48,-0.44,-0.03,-27.24,-21.29,-51.14,82937937
0.84,-11.85,-4.46,0.60,-0.38,-0.05,-27.52,-21.37,-51.36,82937971
2.55,-13.25,-5.89,0.51,-0.21,-0.08,-27.13,-21.91,-50.18,82938005
3.96,-11.62,-5.04,0.72,0.46,-0.19,-27.11,-22.33,-50.70,82938040
7.53,-8.06,-3.07,0.76,0.35,-0.61,-26.48,-23.11,-50.86,82938074
10.28,-3.07,-5.16,0.19,-0.01,-1.53,-25.71,-24.50,-51.11,82938108
3.90,-8.48,-3.01,-1.60,-2.04,-2.72,-25.43,-25.58,-50.15,82938142
6.56,-2.67,-4.47,-1.22,-0.97,-2.07,-25.43,-26.16,-49.37,82938176
4.04,-8.57,-2.02,-1.23,0.50,-1.26,-24.63,-25.94,-50.48,82938210
-0.24,-10.19,-0.31,-1.03,0.34,-1.16,-23.46,-26.10,-52.00,82938245
0.24,-9.77,-0.02,-0.97,-1.20,-1.52,-23.18,-25.62,-51.33,82938279
1.54,-9.20,-1.89,-0.80,-2.05,-1.34,-24.38,-26.57,-50.06,82938313
2.92,-9.28,-2.42,-0.56,-1.88,-0.84,-25.12,-26.31,-48.51,82938347
3.26,-8.78,-2.70,-0.08,-1.03,0.02,-26.31,-26.32,-47.81,82938381
3.40,-6.98,-2.69,0.07,-0.14,0.90,-26.79,-26.06,-47.53,82938416
2.73,-7.66,-1.89,-0.03,0.50,1.44,-27.43,-24.69,-48.07,82938450
-4.40,-20.71,-6.03,-3.25,2.15,1.99,-27.58,-22.19,-49.72,82938484
3.50,-10.06,-3.52,0.14,0.16,0.79,-27.42,-22.11,-49.40,82938518
3.24,-6.60,-1.21,0.43,0.40,0.76,-27.40,-21.44,-50.06,82938552
3.97,-8.69,-2.29,0.31,0.01,0.84,-27.59,-21.15,-49.47,82938586
4.72,-8.40,-3.81,0.38,-0.66,0.43,-28.24,-20.43,-49.15,82938621
