ax,ay,az,gx,gy,gz,mx,my,mz,timestamp
-1.06,9.72,-1.11,0.11,-0.08,-0.10,-1.53,-64.67,28.05,39934
-0.99,9.59,-1.35,0.07,-0.12,-0.07,-1.26,-64.69,28.50,39968
-1.11,9.49,-1.78,0.15,-0.10,-0.07,-0.75,-64.40,28.24,40002
-1.24,9.57,-1.54,0.17,-0.13,-0.07,-0.79,-64.66,28.98,40037
-2.15,9.84,-0.90,0.21,-0.32,-0.00,-0.67,-64.44,28.94,40071
-4.96,10.44,-0.02,0.47,-1.13,0.25,0.61,-64.83,29.32,40105
1.04,10.07,-0.29,0.46,-1.41,-0.25,3.00,-64.00,30.36,40139
-3.17,12.79,-4.41,0.76,-0.91,0.06,5.00,-63.04,31.63,40173
-1.67,9.69,-2.48,0.68,-1.73,-0.13,7.91,-62.93,32.18,40208
-4.26,9.26,-1.66,0.89,-2.03,-0.45,12.32,-61.31,33.69,40242
-5.55,8.88,-1.19,1.20,-3.25,-0.37,17.63,-60.52,34.41,40276
-4.51,8.29,-3.58,1.20,-3.97,-0.37,24.64,-58.99,34.27,40310
-3.90,5.72,-10.06,1.75,-5.35,0.13,34.80,-56.90,31.72,40344
-0.48,8.37,-7.29,3.04,-7.00,1.44,42.81,-54.82,28.08,40378
5.16,11.67,-2.62,2.29,-5.98,0.85,51.80,-53.46,21.32,40413
4.19,11.15,-2.06,-0.13,0.14,-1.07,53.83,-51.53,20.23,40447
2.56,10.33,-3.69,-0.33,-0.59,-0.51,54.69,-51.13,19.41,40481
0.05,10.36,-2.09,0.00,-0.91,-0.11,55.45,-51.37,19.00,40515
-3.94,9.55,-1.41,-0.05,-0.57,-0.09,55.57,-51.08,17.98,40549
-4.10,8.75,-1.99,-0.08,-0.64,-0.02,56.15,-51.87,16.49,40583
-5.80,7.92,-3.37,-0.36,-0.31,-0.02,55.48,-51.83,16.28,40618
-6.77,6.64,-4.36,-0.37,-0.24,0.05,54.84,-52.86,14.50,40652
-6.64,7.34,-1.81,-0.23,-0.26,-0.08,55.23,-53.03,14.26,40686
-3.95,8.33,-1.68,-0.21,-0.46,-0.47,56.08,-52.88,13.62,40720
-1.82,8.92,-2.25,-0.42,-0.73,-0.82,56.64,-51.58,11.28,40754
-2.79,8.36,-5.43,-0.22,-0.95,-0.95,58.30,-49.77,9.22,40789
-1.89,9.34,-0.84,0.07,-1.67,-0.93,60.01,-48.61,7.02,40823
-3.45,9.99,1.01,-0.12,-0.75,-0.70,61.88,-46.01,5.19,40857
-8.80,8.51,-0.09,-0.29,-0.97,-0.51,62.53,-45.64,3.65,40891
-8.27,11.40,-0.56,-0.81,-1.01,-0.81,63.26,-44.58,1.30,40925
-4.54,10.78,-14.03,-0.95,-1.44,-0.89,64.26,-42.55,-3.05,40959
8.09,14.46,-16.00,0.25,-1.10,0.16,63.01,-42.14,-4.84,40994
-11.87,16.09,-8.63,-2.70,-1.34,-0.93,60.48,-42.17,-5.25,41028
-32.86,-8.69,-31.54,0.50,-3.57,-3.00,59.30,-35.57,-12.17,41062
5.19,0.13,-0.41,-4.37,2.12,-5.84,57.59,-26.13,-11.96,41096
1.84,3.95,-4.79,-1.36,5.83,-4.49,52.97,-17.22,-0.38,41130
-5.18,1.72,-5.26,-0.92,5.78,-3.19,44.78,-13.80,8.37,41165
-3.80,2.70,-1.19,-1.05,3.60,-0.23,37.09,-13.64,13.80,41199
-4.07,4.19,-0.00,-1.10,2.76,1.81,27.64,-16.47,14.02,41233
-3.82,6.09,1.30,-1.06,2.73,2.75,20.17,-20.17,13.69,41267
-3.86,9.03,2.09,-0.65,3.54,3.01,11.87,-22.10,12.96,41301
-7.24,10.02,-0.73,-0.61,3.78,2.90,2.46,-23.17,10.51,41335
-10.71,9.75,-1.46,-0.55,2.18,3.23,-4.95,-22.48,7.42,41370
-13.48,11.60,-0.67,-0.29,0.75,2.75,-11.37,-20.42,5.03,41404
-14.38,10.60,-0.48,-0.22,-0.31,2.02,-13.93,-18.23,4.71,41438
-4.27,2.70,-0.94,-0.14,-2.14,0.05,-14.76,-17.29,5.33,41472
-29.15,9.18,-3.14,1.35,-2.55,1.09,-14.13,-16.03,7.00,41506
-9.80,7.40,2.60,0.54,-2.95,-0.05,-12.85,-14.85,9.02,41541
-2.72,11.01,-1.06,0.15,-1.92,0.12,-11.84,-14.92,10.35,41575
-4.35,9.46,-2.38,-0.67,-1.46,-0.76,-10.93,-16.25,11.33,41609
-2.84,10.67,-2.58,-0.77,-1.07,-0.72,-10.96,-18.42,11.62,41643
-0.65,12.80,-1.69,-1.14,-1.08,-0.32,-10.16,-21.21,11.88,41677
2.31,10.16,-6.38,-1.59,-0.42,-0.30,-10.98,-24.36,11.28,41711
4.58,10.98,-6.02,-1.88,0.76,-0.26,-13.91,-27.97,8.35,41746
4.32,10.36,-5.96,-2.53,2.39,-0.70,-18.05,-32.70,3.30,41780
2.62,8.06,-9.37,-2.62,2.97,-0.78,-21.24,-34.77,-4.05,41814
3.14,8.32,-10.66,-2.37,3.82,-0.45,-25.48,-34.51,-14.45,41848
0.17,8.57,-13.07,-2.21,4.64,-0.24,-27.26,-32.18,-24.61,41882
-3.95,3.41,-18.17,-1.98,5.94,-0.95,-26.72,-28.50,-33.40,41916
-7.69,2.26,-16.12,-0.57,5.10,-0.99,-23.36,-24.29,-41.11,41951
-5.10,5.73,-9.30,0.17,3.03,-0.98,-21.44,-20.80,-45.18,41985
3.10,9.01,-8.44,0.63,1.52,-0.76,-20.05,-18.61,-47.35,42019
0.51,12.02,-1.04,1.32,0.79,0.32,-19.82,-14.32,-48.76,42053
1.40,15.40,3.11,1.51,0.50,1.14,-20.87,-10.17,-50.83,42087
-1.31,12.04,1.62,1.40,-0.17,2.19,-20.46,-3.10,-51.78,42122
-15.94,9.18,0.41,2.20,-2.45,3.38,-20.45,3.80,-51.75,42156
-15.29,13.01,4.06,2.67,-5.50,4.25,-22.22,8.94,-51.14,42190
-13.29,12.35,2.45,1.62,-5.34,2.34,-24.79,13.83,-49.12,42224
-7.16,11.61,-0.29,1.02,-5.63,1.53,-27.11,17.10,-47.09,42258
-7.05,13.27,-3.75,0.39,-4.77,1.00,-28.62,19.80,-44.24,42292
-3.06,10.81,-6.15,-0.09,-3.02,0.48,-29.26,21.81,-42.91,42327
-0.82,11.17,-2.03,-0.74,-1.92,-0.10,-28.49,24.01,-42.75,42361
2.19,10.48,-4.17,-1.34,-0.06,-0.55,-26.13,25.07,-43.61,42395
6.35,12.65,-3.98,-1.80,1.25,-0.43,-22.96,26.67,-44.74,42429
4.37,11.21,-9.40,-2.10,2.61,-0.36,-17.55,29.19,-46.07,42463
3.13,9.06,-14.07,-2.50,4.82,-0.22,-8.29,33.57,-46.83,42498
0.26,0.75,-21.95,-2.19,5.92,-0.90,1.20,36.88,-44.83,42532
-1.60,1.88,-18.90,-0.90,6.35,-1.37,10.76,40.16,-38.50,42566
-1.76,5.89,-11.06,0.07,3.29,-1.38,14.86,41.80,-33.21,42600
4.98,8.44,-6.32,0.41,2.44,-1.32,16.71,43.48,-28.95,42634
-3.27,12.60,-2.08,1.15,0.67,0.43,18.56,44.15,-26.83,42668
-2.50,6.94,1.45,0.98,0.33,-0.15,20.04,43.55,-23.78,42703
-7.33,7.51,-2.62,1.53,-0.63,1.19,22.24,42.87,-22.70,42737
-10.39,6.73,1.03,2.09,-2.73,1.62,25.65,40.16,-24.82,42771
-5.94,10.55,1.00,2.59,-4.02,2.55,28.82,36.89,-28.82,42805
-3.22,16.01,1.48,2.50,-5.18,3.12,31.86,30.18,-34.92,42839
-6.92,16.31,6.09,1.64,-5.30,3.75,32.77,24.20,-40.13,42874
-10.18,13.65,4.30,0.58,-5.49,2.45,33.00,18.08,-43.98,42908
-12.52,6.85,-1.51,-0.23,-5.20,0.57,30.62,13.75,-48.23,42942
-7.51,5.55,-1.93,-2.21,0.12,-0.88,29.92,13.04,-47.71,42976
-2.66,7.22,-7.78,-1.91,0.24,-0.96,30.66,13.45,-44.78,43010
-0.06,5.40,-8.53,-2.47,1.78,-1.76,33.19,15.52,-41.22,43044
1.47,8.71,-12.35,-2.19,2.63,-1.49,35.38,17.25,-35.24,43079
6.47,12.52,-10.30,-1.95,3.01,-0.74,38.41,17.26,-28.21,43113
7.40,14.14,-11.37,-1.87,4.35,0.84,41.19,15.65,-19.45,43147
4.94,6.66,-10.13,-2.45,6.45,-0.43,41.87,13.34,-7.64,43181
-2.53,-1.59,-23.74,-1.91,6.39,-1.04,37.30,12.25,8.56,43215
-3.52,6.36,-12.84,0.85,0.77,0.67,34.29,10.44,13.99,43250
-2.20,6.84,-4.55,0.86,0.79,-0.65,30.75,11.58,18.42,43284
1.55,4.52,-5.44,1.15,0.47,-1.51,23.66,13.68,21.40,43318
-7.60,6.19,-2.51,1.21,0.60,-0.62,18.50,15.52,23.97,43352
-2.67,6.94,-2.88,1.10,0.19,-0.30,13.20,17.57,25.37,43386
-2.51,7.68,0.07,1.17,-0.66,1.05,10.49,19.47,25.05,43420
-1.78,12.77,3.57,1.79,-2.55,3.06,10.96,21.59,22.73,43455
-10.89,12.61,11.58,1.73,-4.41,3.90,17.38,22.27,17.58,43489
-9.19,18.01,6.95,1.34,-5.79,4.47,25.67,19.69,11.81,43523
-12.97,13.33,-2.66,0.06,-5.38,1.52,33.05,14.47,6.72,43557
6.28,6.68,-7.20,0.04,-4.73,0.25,35.36,12.16,1.30,43591
-4.77,9.69,-2.61,-0.14,-2.05,0.59,35.25,9.85,-2.06,43625
-1.00,13.46,2.72,-0.90,-1.33,-0.65,35.22,9.09,-3.93,43660
-1.80,8.59,-8.67,-1.74,0.49,-1.33,34.27,9.32,-2.41,43694
0.52,11.33,-7.31,-1.74,0.77,-1.15,33.06,8.99,-0.06,43728
3.05,10.09,-12.04,-2.24,1.76,-1.15,31.48,8.61,2.79,43762
5.12,8.06,-12.17,-2.31,3.13,-0.65,29.57,7.21,5.90,43796
5.58,7.38,-13.83,-2.03,4.54,-0.08,26.45,4.53,10.82,43831
5.97,4.02,-17.83,-1.69,6.64,-0.59,20.99,3.14,15.83,43865
-4.21,1.60,-18.96,-0.69,6.35,-1.61,12.89,2.43,19.63,43899
-3.41,3.11,-11.69,0.17,3.36,-0.92,6.33,3.27,20.75,43933
-1.40,10.35,-4.04,1.28,0.55,1.27,4.40,5.01,20.81,43967
-4.46,9.09,2.19,1.37,-0.80,1.37,4.27,5.69,20.13,44001
-2.70,10.75,2.76,1.66,-2.05,2.52,6.61,6.34,19.10,44036
-11.53,11.15,9.90,1.87,-4.68,3.80,11.30,6.08,17.54,44070
-13.14,17.51,-1.32,2.18,-7.12,4.15,19.12,4.27,12.57,44104
-15.79,18.27,7.22,0.74,-7.21,2.42,24.33,1.24,6.75,44138
-8.92,8.71,-0.14,-0.80,-5.47,-0.63,25.43,-0.67,2.76,44172
-5.11,10.91,3.29,-0.75,-2.16,0.11,25.52,-2.28,-0.22,44207
-5.99,12.16,-0.95,-1.92,-0.84,-1.54,23.88,-3.70,-0.61,44241
-3.56,6.58,-17.60,-3.19,2.79,-2.23,20.18,-4.63,1.70,44275
4.76,9.69,-6.08,-1.69,0.91,-1.00,15.87,-5.10,1.86,44309
9.27,16.35,-3.70,-2.25,2.38,-0.68,11.31,-5.09,1.65,44343
5.84,8.49,-14.30,-2.69,4.34,-0.94,4.59,-4.59,2.08,44377
7.45,9.22,-21.11,-2.44,5.39,-0.00,-1.97,-2.79,-0.77,44412
7.16,5.89,-21.62,-1.73,6.53,0.14,-7.21,1.68,-3.83,44446
-4.67,1.43,-19.03,-0.43,5.95,-0.97,-10.93,8.21,-7.37,44480
-4.84,0.69,-12.71,0.49,3.09,-0.48,-11.75,13.69,-9.43,44514
-5.22,6.06,-2.76,1.43,0.53,0.68,-10.14,19.80,-10.10,44548
-7.88,10.44,1.01,1.89,0.06,1.40,-6.93,23.15,-10.68,44583
-10.12,6.78,4.19,1.59,-2.05,1.58,-3.24,26.32,-10.54,44617
-6.13,12.57,7.85,2.59,-4.98,4.42,5.63,28.08,-11.47,44651
-9.89,18.09,7.34,2.65,-7.84,5.82,15.07,26.38,-15.58,44685
-10.59,26.44,10.37,1.64,-8.73,5.51,23.68,20.10,-20.56,44719
-17.14,17.47,1.36,-0.86,-5.09,0.07,26.97,14.03,-24.09,44753
2.48,5.04,-13.67,-1.58,-2.59,-1.08,26.73,11.58,-23.93,44788
-0.81,7.87,-2.29,-1.34,-0.76,-0.36,26.22,7.54,-22.01,44822
7.14,7.03,-5.87,-2.40,0.61,-2.01,25.05,5.07,-19.15,44856
8.18,11.66,-8.76,-2.44,2.16,-1.46,23.44,2.44,-15.16,44890
9.34,11.67,-9.07,-2.78,2.72,-1.01,19.73,-1.30,-11.17,44924
8.58,13.09,-14.22,-2.89,3.68,-0.31,15.81,-3.74,-9.03,44958
0.46,11.31,-20.64,-2.85,6.25,0.23,10.06,-3.73,-6.99,44993
-0.60,-0.74,-29.33,-2.31,8.60,-1.73,4.14,-0.01,-6.17,45027
-4.49,-0.29,-21.55,-0.49,6.11,-1.10,-0.39,3.23,-5.55,45061
-3.63,7.93,-5.70,1.21,1.96,0.32,-4.06,7.69,-5.96,45095
-1.85,9.39,1.87,1.59,0.68,1.03,-5.93,11.98,-6.99,45129
-5.05,8.87,2.63,1.51,-0.55,1.75,-5.99,16.14,-7.00,45164
-0.03,10.61,5.37,1.86,-3.82,3.82,-1.62,20.34,-9.91,45198
-3.06,20.71,10.89,2.59,-9.34,6.00,5.36,22.33,-13.12,45232
-3.79,26.02,10.34,1.85,-8.14,4.43,12.35,21.50,-19.19,45266
1.34,13.10,10.58,-0.57,-5.94,0.07,14.31,20.08,-21.97,45300
-12.04,13.18,2.04,-0.76,-3.65,0.52,15.21,18.55,-24.58,45334
-8.96,4.59,-4.90,-2.17,-1.75,-1.42,14.81,17.79,-25.56,45369
-2.48,5.15,-10.62,-1.50,0.01,-1.50,14.60,17.92,-25.15,45403
1.58,6.66,-10.60,-2.16,1.16,-1.91,14.28,18.72,-23.95,45437
9.04,13.01,-4.31,-2.06,2.04,-0.61,15.19,18.81,-20.58,45471
6.19,13.89,-3.75,-2.16,3.90,-0.13,15.99,18.04,-17.10,45505
3.37,11.31,-11.04,-1.95,4.81,0.03,16.33,17.22,-12.15,45540
1.84,5.11,-21.71,-1.37,5.91,-0.51,15.39,17.04,-8.64,45574
3.63,4.20,-12.33,-0.49,5.53,-0.31,13.14,16.94,-4.49,45608
-2.10,2.65,-9.32,0.08,3.28,-0.53,10.55,17.92,-3.48,45642
-11.11,3.63,-8.34,0.92,1.31,-0.26,8.71,17.98,-3.10,45676
-8.23,8.45,-3.44,1.47,-0.15,0.46,7.51,18.40,-4.75,45710
-8.66,9.91,2.78,1.81,-1.94,1.60,8.87,18.09,-7.19,45745
-6.46,7.03,-1.66,2.40,-5.13,2.74,10.68,17.25,-11.05,45779
-7.90,10.89,3.28,2.97,-8.05,5.55,13.33,14.95,-17.54,45813
-6.88,23.73,10.11,2.36,-8.09,4.65,14.09,12.23,-22.42,45847
-1.47,28.17,17.51,-1.15,-3.84,0.87,13.46,10.70,-23.97,45881
-1.06,11.76,-0.25,-3.17,-1.53,-2.03,11.12,11.01,-20.49,45916
0.49,8.99,-18.44,-3.31,1.93,-1.14,9.44,11.18,-16.66,45950
7.74,7.37,-7.56,-2.79,2.15,-0.54,7.86,10.93,-11.75,45984
7.09,6.33,-13.70,-3.30,4.97,-1.13,3.74,10.01,-7.57,46018
12.70,8.67,-21.62,-3.28,6.96,-1.12,-1.72,10.13,-5.32,46052
4.85,3.32,-32.63,-2.67,8.39,-1.80,-12.16,11.74,-5.57,46086
1.75,2.47,-24.16,-1.47,6.89,-1.36,-19.88,14.44,-9.62,46121
-12.06,4.08,-13.91,0.16,3.37,-0.23,-25.26,18.80,-14.92,46155
-4.53,0.87,-6.57,0.66,1.94,-0.08,-28.76,25.34,-20.39,46189
-7.70,5.94,-5.23,1.68,0.35,0.89,-29.67,30.68,-24.23,46223
-3.13,6.11,0.59,2.47,-0.86,1.34,-30.44,36.71,-29.61,46257
0.60,12.49,9.34,3.34,-2.91,2.73,-28.30,41.70,-35.31,46291
-4.08,17.40,4.17,3.34,-4.68,4.82,-24.71,47.75,-40.25,46326
-5.36,24.05,3.57,3.23,-7.22,6.92,-18.11,54.19,-43.79,46360
10.27,22.83,2.46,2.15,-9.86,6.06,-11.98,58.62,-45.63,46394
3.76,22.75,4.47,0.24,-6.90,2.16,-7.50,61.12,-46.04,46428
-7.54,10.38,-4.99,-1.55,-5.08,0.38,-7.83,62.35,-42.02,46462
-6.82,9.38,-1.23,-1.94,-2.50,0.09,-6.61,63.46,-38.82,46497
10.44,8.54,-6.64,-3.09,0.41,-1.56,-6.31,64.66,-31.75,46531
8.87,13.15,-7.94,-3.24,2.28,-1.03,-6.37,65.71,-26.67,46565
8.79,14.02,-9.75,-3.58,4.91,-0.47,-3.58,67.00,-21.48,46599
11.91,8.87,-31.37,-4.00,7.25,-0.44,2.67,70.62,-11.56,46633
-0.16,7.06,-37.89,-2.79,7.99,-0.52,8.13,74.01,-1.59,46667
9.13,3.02,-25.86,-1.41,8.70,-1.21,11.72,76.51,11.39,46702
-18.98,3.99,-39.16,0.90,7.89,-3.66,-0.61,82.30,21.28,46736
7.93,6.58,-0.66,2.04,1.80,0.47,0.51,83.15,29.17,46770
-8.78,9.29,2.27,1.95,2.45,0.91,6.61,84.03,31.54,46804
-8.92,0.36,1.81,1.90,-0.28,1.71,13.49,83.69,31.57,46838
-10.21,13.96,2.73,3.84,-4.97,4.52,30.85,82.01,23.15,46873
-9.51,15.51,6.14,3.73,-6.54,3.32,53.77,73.87,6.46,46907
-4.82,11.88,2.34,2.76,-5.06,2.27,64.59,65.33,-5.92,46941
-21.38,-22.26,-13.20,1.28,-6.89,1.40,72.27,54.69,-21.38,46975
-10.63,3.04,13.20,0.96,-4.67,0.60,79.54,34.33,-39.42,47009
-8.08,12.98,-1.75,0.24,-3.33,2.47,80.59,20.71,-46.90,47043
1.96,13.46,-2.01,-0.25,-3.83,2.69,78.47,5.82,-55.63,47078
-1.01,14.49,3.77,-0.79,-3.04,2.19,74.09,-3.30,-61.18,47112
5.75,12.86,-0.66,-1.84,-1.56,0.38,70.52,-8.27,-64.75,47146
1.99,6.38,-7.18,-2.31,-0.01,-0.36,68.47,-8.71,-65.35,47180
1.68,6.72,-3.90,-2.21,0.34,-0.34,68.37,-9.98,-65.27,47214
-1.96,5.92,-9.10,-2.56,1.41,-1.41,68.99,-8.45,-63.23,47249
-1.69,6.43,-7.18,-2.40,1.93,-0.74,72.03,-7.04,-58.42,47283
0.57,11.01,-7.23,-2.36,2.12,-1.04,73.49,-7.06,-53.17,47317
1.40,8.81,-7.67,-2.37,2.09,-1.17,74.51,-6.88,-46.46,47351
-0.29,13.09,-5.92,-2.22,2.14,-1.21,73.82,-6.84,-41.61,47385
2.82,12.10,-10.57,-2.48,2.98,-1.27,72.43,-5.61,-34.11,47419
5.79,13.26,-9.01,-2.13,3.24,-0.40,69.79,-6.52,-24.55,47454
-1.45,11.02,-11.08,-2.38,3.37,-0.46,67.47,-8.05,-16.22,47488
0.91,12.59,-16.16,-1.99,3.08,0.14,61.91,-11.65,-5.73,47522
-4.75,10.88,-9.58,-1.46,2.30,0.29,55.95,-15.61,-1.33,47556
-4.29,9.25,-8.88,-1.46,2.53,0.38,47.87,-18.81,3.43,47590
-4.15,9.94,-7.78,-1.37,2.56,0.17,37.45,-19.85,8.23,47625
-12.19,7.49,-10.45,-1.27,2.45,-0.23,30.05,-18.69,10.11,47659
-7.61,10.17,-6.74,-0.65,2.11,-0.13,23.37,-16.52,13.88,47693
-10.66,3.37,-5.91,-0.36,1.38,-0.32,16.90,-13.88,15.64,47727
-4.62,10.47,-7.30,0.02,1.07,0.35,12.83,-11.11,17.86,47761
-4.09,10.61,-0.32,-0.15,1.09,0.53,7.95,-7.50,20.97,47795
-0.18,8.87,-3.33,-0.45,0.92,0.26,4.69,-3.60,22.99,47830
-6.53,8.07,-6.73,-0.62,2.02,-0.16,0.89,-0.53,25.75,47864
0.27,11.97,-7.25,-0.70,2.01,-0.56,-4.63,1.74,28.54,47898
-10.98,9.07,-8.92,-0.50,1.73,-0.67,-7.83,4.43,30.08,47932
-1.39,10.11,-5.81,-0.34,1.47,-0.45,-10.41,5.86,31.39,47966
-1.28,11.29,-2.36,-0.29,1.33,-0.11,-12.66,6.90,32.64,48000
1.20,13.91,-4.42,-0.25,1.06,0.39,-14.73,8.05,32.90,48035
-1.34,11.66,-0.56,-0.46,1.44,0.40,-17.00,9.18,32.13,48069
-1.03,10.45,-6.70,-0.83,2.03,-0.13,-19.56,10.58,30.62,48103
-2.93,7.94,-9.08,-0.99,2.10,-0.29,-21.81,11.21,28.34,48137
0.72,9.18,-6.70,-0.81,1.88,-0.43,-23.69,12.19,25.69,48171
-3.23,9.93,-5.15,-0.84,2.19,-0.28,-24.58,12.76,24.31,48206
-3.98,12.54,-1.06,-0.65,1.76,-0.01,-23.91,13.45,22.00,48240
-7.31,5.96,-11.00,-1.11,1.41,-0.45,-23.28,13.46,21.13,48274
-3.45,6.39,-3.56,-0.73,1.10,0.44,-22.08,13.26,21.19,48308
-4.67,5.08,-5.74,-0.64,0.71,0.14,-20.91,13.88,20.55,48342
0.22,9.88,-2.45,-0.72,1.01,0.32,-19.41,14.76,21.47,48376
-0.64,11.70,-3.80,-1.36,2.01,0.18,-19.29,14.98,23.03,48411
-3.67,12.47,-13.03,-1.84,3.05,0.19,-22.13,14.26,25.08,48445
-7.83,11.10,-10.75,-1.39,3.21,0.07,-25.27,13.33,26.03,48479
-3.34,14.12,-9.40,-1.24,3.58,0.12,-31.16,12.00,28.21,48513
-5.61,9.53,-9.10,-0.72,2.72,0.15,-35.71,11.63,28.75,48547
-2.06,7.95,-3.88,-0.51,2.38,0.20,-40.49,12.06,30.04,48582
0.07,10.76,-12.25,-0.70,2.99,0.35,-46.76,13.56,29.09,48616
1.94,12.91,-11.14,-0.39,4.68,1.09,-53.58,15.95,25.17,48650
-3.00,11.04,-7.72,-0.25,5.42,0.11,-61.63,18.75,16.19,48684
-0.22,8.84,-8.19,-0.43,3.28,-0.50,-67.60,20.48,10.48,48718
-4.47,6.38,-5.64,0.23,0.90,0.50,-69.60,22.79,8.24,48752
-9.89,6.84,-2.21,0.96,-0.47,1.31,-67.41,28.81,10.30,48787
-14.40,6.08,-0.30,0.31,-1.88,-0.69,-65.52,30.30,14.41,48821
-5.13,9.05,-5.23,1.29,-2.10,-0.10,-63.14,29.11,20.04,48855
-8.41,7.94,-0.24,0.80,-1.69,-0.32,-59.60,30.37,24.20,48889
-8.36,6.64,-3.13,0.67,-1.37,-0.64,-57.10,29.11,27.59,48923
-6.49,8.01,-0.04,0.78,-1.04,-0.10,-54.95,29.25,33.12,48958
-5.17,9.37,-0.44,0.86,-1.10,-0.48,-52.53,29.11,32.90,48992
1.62,10.13,-5.80,0.82,-0.80,-0.45,-50.53,28.68,34.45,49026
2.46,11.28,0.27,0.45,-0.20,-0.42,-49.46,27.54,36.33,49060
1.72,10.78,-2.38,0.01,0.38,-0.32,-49.49,25.46,36.32,49094
-2.81,9.99,-3.52,-0.18,0.50,-0.13,-49.44,22.86,37.42,49128
-4.78,8.98,-4.11,-0.60,0.61,-0.17,-50.51,17.68,38.38,49163
-4.25,7.28,-5.96,-0.86,1.05,-0.19,-52.94,13.11,37.80,49197
-0.88,9.20,-5.51,-1.02,1.68,0.15,-56.08,9.30,35.95,49231
1.62,14.02,-3.56,-1.07,2.74,1.24,-62.16,5.95,30.53,49265
13.59,10.86,-10.68,-1.76,6.13,-0.09,-70.77,3.92,17.52,49299
13.70,5.99,-18.97,-1.56,7.87,-1.37,-82.24,-2.13,-10.45,49333
-2.84,4.57,-16.51,-0.98,4.97,-1.19,-84.41,-3.43,-29.77,49368
-3.38,8.92,-4.30,0.36,0.80,0.57,-83.60,-0.50,-39.14,49402
-2.19,10.10,0.58,-0.04,0.96,0.47,-82.33,4.57,-48.39,49436
-4.09,8.57,-0.21,-0.67,0.32,0.04,-80.49,8.74,-54.27,49470
-6.86,8.46,-1.83,0.34,-0.94,0.98,-78.52,14.76,-57.02,49504
-7.26,7.71,-2.47,0.49,-2.12,1.42,-77.30,20.27,-53.96,49539
-3.15,11.34,0.61,0.61,-2.76,1.52,-77.48,25.21,-49.93,49573
-4.45,7.22,-4.51,-0.24,-0.65,-0.43,-76.67,27.32,-47.37,49607
-8.85,6.99,-4.86,-0.19,0.51,-0.51,-75.12,26.69,-49.96,49641
-18.25,5.23,-5.19,0.16,0.74,-1.55,-74.89,23.87,-53.35,49675
-8.60,3.91,-7.78,0.52,-1.04,-1.60,-76.44,18.97,-51.89,49709
-9.54,9.55,-1.15,0.60,-0.15,-1.44,-77.83,16.18,-52.67,49744
-4.12,6.65,-9.74,0.10,0.22,-1.39,-79.20,12.58,-53.54,49778
1.27,9.46,-6.44,0.22,-0.30,-0.81,-79.58,9.97,-52.15,49812
-1.88,9.37,-5.57,0.06,0.01,-0.87,-79.20,7.67,-53.92,49846
-4.24,9.66,0.44,-0.07,0.04,-0.65,-78.94,6.56,-54.69,49880
-3.34,9.42,-1.29,-0.09,0.21,-0.59,-78.87,4.84,-56.31,49915
-1.67,11.43,-3.13,-0.44,0.44,-0.51,-78.06,4.27,-57.73,49949
4.65,14.72,-6.91,-0.98,1.11,-0.48,-76.22,4.33,-60.83,49983
10.54,12.29,-10.19,-1.26,2.33,-0.73,-72.67,3.95,-67.10,50017
8.86,12.41,-1.24,-1.17,2.40,-0.17,-67.36,4.69,-74.93,50051
6.61,13.08,-3.03,-0.79,2.12,0.12,-62.69,5.44,-80.93,50085
-0.02,11.14,-0.90,-1.28,2.95,0.15,-57.00,6.46,-88.03,50120
-13.08,6.93,-11.93,-0.72,2.14,-0.29,-50.06,8.52,-94.97,50154
2.08,5.53,-5.98,-0.56,2.09,-0.41,-44.87,9.31,-100.25,50188
0.18,5.98,-5.19,-0.64,1.43,-0.80,-39.99,9.95,-102.95,50222
-5.53,4.82,-6.78,-0.07,1.09,-0.29,-34.83,11.43,-106.91,50256
-9.42,4.68,-6.87,0.41,0.49,0.22,-32.23,12.00,-109.92,50291
-10.03,8.21,-1.37,1.20,-0.80,1.14,-31.70,11.05,-112.23,50325
-7.46,7.81,-4.00,0.99,-1.28,0.54,-35.37,10.68,-112.48,50359
-8.19,6.96,-2.88,0.85,-1.78,0.36,-39.37,10.46,-112.86,50393
-8.56,7.67,-4.24,0.66,-1.48,0.49,-44.87,11.27,-112.93,50427
-10.11,5.61,-3.60,0.87,-1.53,0.30,-49.18,11.31,-112.72,50461
-4.02,8.32,-3.12,1.08,-1.76,0.39,-53.96,10.42,-111.52,50496
4.15,9.68,-7.27,1.46,-2.55,0.81,-60.74,8.90,-109.09,50530
-2.19,9.96,-2.81,0.92,-1.77,0.53,-65.21,8.86,-107.76,50564
-0.98,6.78,-3.95,0.33,-1.21,0.30,-69.18,10.46,-105.41,50598
-4.35,8.25,-4.38,-0.00,-0.86,-0.14,-70.90,13.52,-105.28,50632
-1.93,7.85,-0.39,-0.15,-0.73,-0.53,-72.89,14.78,-105.42,50666
-2.41,9.77,-1.22,-0.35,-0.36,-0.65,-74.01,17.16,-104.87,50701
-2.65,9.60,-5.53,-0.33,-0.06,-0.58,-74.50,19.23,-105.50,50735
-1.78,10.44,-2.89,-0.30,0.58,-0.28,-73.44,25.78,-107.13,50769
-2.00,10.39,-2.59,-0.67,1.67,-0.38,-68.04,27.10,-111.28,50803
2.23,10.44,-4.61,-1.12,2.09,-0.34,-61.33,32.43,-113.64,50837
9.28,9.47,-8.87,-1.32,3.41,-0.40,-48.47,40.03,-117.03,50872
2.62,5.22,-13.44,-1.40,6.02,-1.46,-30.08,44.74,-120.08,50906
0.39,6.72,-8.14,-0.85,3.85,-0.98,-14.69,47.24,-118.96,50940
-8.46,5.69,-13.46,-0.54,2.51,-1.54,-4.97,49.71,-116.65,50974
0.79,7.66,-6.99,-0.23,1.09,-0.83,-1.48,50.50,-115.01,51008
-3.15,8.51,-3.21,-0.20,1.70,-0.29,4.31,50.32,-114.31,51042
-5.30,6.51,-4.19,0.23,1.53,-0.45,11.72,49.75,-113.55,51077
-6.06,3.57,-6.62,0.78,1.12,-0.21,16.71,47.66,-113.15,51111
-3.67,9.21,-3.96,1.04,-0.13,0.61,20.39,43.63,-114.56,51145
-3.31,6.31,-7.14,1.19,-0.28,0.27,20.87,40.12,-116.19,51179
-5.40,7.20,-1.34,1.29,-0.76,1.38,22.60,34.76,-117.26,51213
-4.32,8.41,2.29,1.71,-2.05,1.98,20.29,27.16,-120.86,51248
-3.89,4.69,-4.35,2.00,-3.77,3.04,13.96,20.71,-123.34,51282
-1.15,1.59,-7.42,2.07,-5.33,3.36,-1.55,13.37,-125.55,51316
0.27,13.41,4.26,1.52,-4.48,4.33,-13.90,12.67,-123.90,51350
3.98,21.40,1.55,0.92,-4.82,4.78,-24.06,16.31,-117.98,51384
2.58,16.19,2.12,0.67,-4.47,4.71,-30.90,24.50,-109.21,51418
-8.61,16.14,0.11,0.49,-5.17,5.16,-33.32,30.49,-101.24,51453
-5.20,15.37,-0.77,0.36,-5.18,4.59,-35.14,36.12,-93.36,51487
-11.60,14.22,0.00,-0.30,-4.06,2.55,-36.44,40.37,-85.60,51521
-9.37,6.13,-8.97,-0.84,-2.33,-0.71,-38.40,42.20,-81.18,51555
-5.16,-1.25,-11.66,-0.35,-1.07,-1.70,-40.81,40.60,-77.64,51589
-9.39,7.70,0.86,-0.25,-0.37,-1.20,-40.84,39.59,-77.00,51624
-8.02,7.15,-8.71,-0.30,-0.09,-2.09,-42.68,37.97,-76.34,51658
-2.99,7.06,-7.01,-0.27,-0.97,-0.73,-44.87,37.66,-75.07,51692
-1.44,8.64,-6.48,0.15,-0.62,0.13,-45.38,37.61,-73.79,51726
0.06,10.41,-3.00,0.33,-0.57,0.84,-44.23,38.38,-72.57,51760
0.15,8.97,-6.09,0.66,-2.40,2.27,-42.56,40.15,-71.02,51794
4.80,11.93,-4.34,0.96,-4.98,3.71,-43.13,42.91,-67.25,51829
-1.87,13.08,-2.52,0.97,-5.74,3.31,-45.02,46.68,-59.06,51863
1.74,17.65,5.76,0.05,-5.34,1.44,-47.38,49.14,-51.58,51897
-3.63,13.17,1.77,-1.61,-1.44,0.00,-49.50,50.26,-46.55,51931
-9.19,5.05,-1.81,-1.81,-0.90,-0.86,-51.94,52.18,-41.65,51965
-7.49,4.53,-8.59,-1.28,-0.14,-0.95,-53.13,52.82,-38.57,52000
0.88,10.65,-4.11,-1.11,0.17,-0.61,-53.86,52.91,-37.09,52034
8.42,15.75,-4.83,-1.56,1.50,-0.09,-52.47,54.38,-37.52,52068
9.31,13.90,-5.25,-2.74,4.24,1.08,-47.71,57.88,-38.89,52102
10.33,15.99,-12.24,-3.78,9.50,0.90,-35.50,62.92,-42.58,52136
20.86,2.12,-34.28,-2.51,15.29,-2.56,-24.47,62.10,-48.10,52170
-0.36,0.53,-18.50,-0.42,9.26,-1.75,-11.37,59.78,-50.12,52205
-0.03,7.25,-7.33,0.01,4.00,-0.92,-4.25,55.99,-49.05,52239
-26.34,11.00,-17.67,-0.43,1.74,-3.88,-3.43,52.54,-46.51,52273
3.09,12.08,-2.12,0.66,0.87,-0.10,-3.65,48.41,-46.07,52307
-5.34,10.36,-2.06,-0.01,1.42,-1.10,-0.95,44.71,-44.90,52341
-12.01,7.09,-6.97,0.29,1.73,-0.05,2.13,40.60,-43.00,52375
-11.24,4.99,-2.69,0.21,0.86,-0.25,5.73,35.74,-41.49,52410
-7.90,4.64,-13.70,0.51,0.69,-0.45,6.07,32.30,-40.70,52444
-12.18,2.75,-7.09,0.91,0.24,0.14,7.97,29.11,-40.00,52478
-12.53,4.07,-6.36,0.89,-0.01,0.06,9.21,25.69,-40.49,52512
-9.82,6.05,-2.55,1.12,-0.42,0.37,9.68,23.68,-40.84,52546
-7.09,8.23,-0.15,1.59,-0.64,0.52,10.27,20.99,-41.54,52581
-2.55,9.61,0.15,1.80,-0.59,0.80,10.86,18.56,-43.45,52615
1.49,12.42,-2.26,1.97,-1.52,2.75,12.07,15.30,-44.55,52649
10.50,17.00,-1.73,1.29,-3.66,4.49,12.23,11.09,-47.03,52683
4.26,13.55,-5.34,1.42,-4.25,4.62,11.09,6.94,-48.30,52717
3.08,13.77,-2.44,1.33,-8.32,6.38,6.02,2.63,-48.38,52751
7.62,20.59,6.81,0.95,-7.49,5.36,-2.97,-0.26,-47.84,52786
-16.52,15.75,4.06,-0.17,-5.15,2.77,-7.42,0.89,-45.10,52820
-5.97,8.71,1.66,-0.79,-4.94,1.22,-11.74,4.09,-42.03,52854
-12.75,6.07,-5.62,-1.02,-3.29,0.50,-14.12,6.66,-39.40,52888
-11.85,1.87,-6.73,-1.34,-1.45,-1.28,-16.27,8.45,-36.45,52922
-7.17,4.16,-7.61,-1.15,-0.59,-1.76,-17.11,8.81,-35.08,52957
-5.54,5.58,-3.61,-1.18,0.46,-2.15,-18.14,8.45,-33.63,52991
2.96,14.10,3.06,-1.47,0.66,-2.07,-19.32,7.86,-32.20,53025
2.13,10.70,-4.48,-2.10,1.13,-2.41,-19.66,7.83,-31.00,53059
4.20,15.13,-2.57,-1.82,1.10,-1.20,-20.43,7.86,-29.35,53093
7.45,14.86,-3.68,-2.47,2.07,-0.88,-20.48,9.16,-28.03,53127
0.39,17.96,-5.39,-2.88,3.24,0.06,-20.29,9.35,-26.91,53162
11.87,17.90,-3.29,-2.93,5.63,2.01,-19.70,9.68,-26.79,53196
2.90,10.83,-21.10,-3.32,7.16,1.31,-18.80,10.58,-28.56,53230
5.74,8.71,-23.92,-2.17,8.05,0.34,-18.01,10.03,-31.88,53264
-3.01,-0.82,-24.72,-1.23,7.83,-1.95,-15.65,8.59,-37.91,53298
-10.06,3.74,-16.85,0.01,5.56,-1.21,-12.17,6.42,-42.17,53333
-7.22,7.09,-6.08,-0.05,1.70,-0.51,-10.14,4.87,-43.85,53367
-3.07,3.80,-6.55,0.60,1.15,-1.45,-9.49,3.13,-44.68,53401
-7.07,7.17,-6.44,1.07,0.91,-0.23,-7.82,0.99,-46.32,53435
-5.35,5.92,-1.37,1.51,0.49,0.62,-7.06,-1.23,-47.03,53469
-5.93,7.63,1.17,1.81,-0.92,1.39,-6.78,-3.96,-47.59,53503
-5.51,10.94,-0.67,2.46,-1.92,2.69,-7.97,-5.86,-48.28,53538
-3.51,13.14,-0.76,2.44,-3.90,4.04,-10.63,-7.61,-46.11,53572
-6.78,12.91,2.51,1.83,-5.56,5.06,-15.86,-7.32,-44.33,53606
-3.25,14.87,2.98,1.34,-6.48,5.64,-20.72,-4.81,-40.31,53640
-9.88,16.80,-1.14,0.59,-6.86,4.51,-24.48,-1.14,-35.63,53674
-6.13,13.73,0.01,0.48,-6.62,3.70,-27.16,2.79,-31.04,53708
-2.13,10.06,-2.38,-0.45,-4.95,1.55,-28.92,4.95,-26.70,53743
-3.82,6.10,-6.11,-0.47,-3.11,0.65,-30.74,7.15,-24.04,53777
0.59,6.66,-5.76,-0.60,-2.68,-0.30,-31.92,8.30,-21.25,53811
-5.37,8.97,-3.81,-0.94,-1.41,-0.61,-33.18,9.41,-20.83,53845
-0.34,8.38,-3.29,-1.37,-1.02,-1.27,-34.60,9.49,-20.13,53879
-1.88,9.04,-4.49,-1.39,0.00,-1.14,-35.62,8.84,-19.77,53914
5.22,12.30,-8.10,-1.63,0.88,-0.93,-36.96,9.06,-20.96,53948
8.21,13.59,-5.34,-2.03,1.81,-0.10,-37.56,10.35,-23.98,53982
8.62,13.84,-0.50,-3.07,4.38,0.09,-36.66,12.92,-28.57,54016
8.89,5.63,-21.11,-4.00,9.61,-2.69,-33.27,15.59,-37.50,54050
1.71,2.43,-30.82,-2.66,8.58,-1.72,-27.49,17.45,-44.67,54084
-3.02,3.38,-16.44,-0.87,6.50,-1.50,-18.99,18.02,-47.71,54119
-4.25,4.60,-13.04,-0.42,3.80,-2.07,-13.80,16.47,-48.60,54153
-6.40,8.88,-8.89,0.24,1.27,-0.81,-11.46,15.10,-49.49,54187
1.29,7.22,-7.66,0.02,1.31,-0.82,-8.70,12.91,-48.32,54221
0.76,9.68,-4.30,0.58,1.01,0.50,-5.28,11.18,-47.72,54255
-5.01,7.22,-4.20,0.85,1.50,0.72,-1.78,8.16,-47.00,54290
-11.39,7.08,-2.62,0.96,0.85,0.70,2.15,4.75,-44.91,54324
-8.16,4.19,-7.17,1.17,0.16,-0.15,3.08,1.72,-43.55,54358
-7.34,6.64,-0.04,1.11,-1.94,0.82,2.88,-0.86,-41.55,54392
3.30,12.24,-3.85,2.20,-3.11,1.50,1.34,-3.49,-41.01,54426
2.62,14.74,0.20,2.36,-3.14,3.19,0.92,-6.36,-39.75,54460
-7.74,19.04,4.94,1.69,-4.38,5.57,-1.43,-10.26,-36.38,54495
-14.41,15.21,11.11,0.42,-5.35,4.96,-4.63,-11.63,-35.24,54529
-14.77,13.14,1.26,-0.24,-7.04,3.42,-8.80,-11.81,-34.11,54563
-4.06,7.69,-6.15,-0.37,-4.38,1.20,-13.72,-11.43,-31.89,54597
-10.27,6.54,-5.79,-0.53,-2.74,0.37,-15.90,-11.22,-31.80,54631
-5.37,7.81,-2.64,-0.40,-2.74,-0.24,-18.75,-10.79,-28.33,54666
-1.76,10.61,-3.32,-0.73,-1.89,-0.33,-20.74,-9.81,-27.19,54700
1.07,9.72,-1.47,-0.81,-1.64,-0.52,-23.17,-9.38,-25.75,54734
2.60,9.99,-0.92,-1.43,-0.67,-0.45,-24.96,-7.50,-24.09,54768
11.36,12.53,-6.01,-1.86,1.46,-0.31,-27.07,-6.08,-24.61,54802
12.14,13.29,-7.60,-2.84,4.21,-0.25,-28.06,-2.76,-28.38,54836
12.15,6.91,-26.06,-3.15,9.66,-1.57,-26.62,0.73,-36.26,54871
13.39,1.89,-26.55,-2.22,11.02,-2.50,-22.42,3.38,-43.57,54905
-0.38,-0.42,-25.57,-0.88,8.54,-3.06,-14.70,5.09,-49.69,54939
-1.95,6.26,-9.94,-0.05,1.07,-1.21,-12.70,6.55,-50.13,54973
-3.31,10.42,-0.12,0.37,1.12,-0.11,-11.39,7.57,-50.38,55007
-8.42,8.69,1.69,0.43,1.06,-0.79,-8.70,8.81,-49.04,55041
-1.85,4.86,-13.64,0.41,1.35,-0.93,-7.66,8.74,-47.76,55076
-1.70,7.07,-6.25,0.96,0.86,0.68,-4.03,8.87,-45.98,55110
-0.35,5.29,-0.58,1.64,-0.74,0.57,-2.44,8.21,-45.03,55144
-1.79,10.59,0.20,1.80,-1.03,2.21,1.11,6.42,-43.47,55178
-8.18,10.82,1.26,1.59,-1.61,2.50,3.96,3.77,-40.81,55212
-6.50,10.33,2.81,1.48,-3.23,3.48,5.32,1.42,-39.58,55247
-15.08,12.56,7.17,1.31,-4.58,4.21,5.92,-2.50,-38.64,55281
-10.59,14.54,1.24,0.89,-6.17,4.57,3.87,-6.80,-38.25,55315
-3.89,13.63,-3.89,0.52,-6.66,3.75,0.34,-9.15,-37.55,55349
-5.94,10.96,-5.87,0.13,-4.99,1.93,-4.37,-11.74,-36.41,55383
-5.56,9.45,-7.38,-0.07,-4.01,0.53,-7.80,-12.73,-34.58,55417
-0.89,6.96,-5.31,-0.14,-3.53,-0.22,-9.95,-14.44,-33.51,55452
-1.15,11.05,0.18,-0.10,-2.63,0.17,-12.58,-15.57,-30.94,55486
3.58,13.24,0.47,-1.36,-1.64,-1.74,-14.21,-16.59,-30.17,55520
0.23,11.35,-9.48,-1.45,0.33,-0.79,-14.78,-18.58,-29.26,55554
7.39,11.47,-4.85,-1.94,1.18,-0.79,-15.51,-19.70,-30.33,55588
4.87,9.71,-7.28,-2.55,3.06,-0.22,-16.05,-21.10,-32.68,55623
7.34,10.86,-7.75,-3.09,5.45,-0.20,-16.53,-20.71,-38.25,55657
6.25,1.31,-29.14,-3.47,9.74,-2.27,-12.57,-20.14,-44.74,55691
5.10,-2.13,-32.84,-1.16,8.83,-1.73,-5.55,-19.96,-49.93,55725
-3.07,4.66,-19.87,-0.35,7.09,-2.01,3.73,-20.94,-51.07,55759
-10.29,7.87,-8.59,0.00,2.48,-0.97,6.93,-21.98,-52.29,55793
-3.52,7.26,-6.24,0.50,1.08,-0.29,7.57,-23.34,-52.35,55828
-12.03,6.53,-3.41,0.73,0.88,-0.20,8.11,-25.40,-52.15,55862
-8.43,4.05,-5.61,0.86,0.59,-1.13,8.81,-26.47,-51.91,55896
-7.12,4.15,-3.40,1.32,-0.19,0.29,8.83,-27.87,-51.55,55930
-7.91,8.17,-1.20,2.13,-2.00,1.28,6.68,-30.69,-50.04,55964
-5.91,12.66,0.29,2.91,-2.27,3.39,1.58,-33.28,-48.16,55999
-8.89,17.31,6.52,2.80,-4.57,5.90,-8.48,-34.80,-45.86,56033
-3.88,18.74,10.05,1.14,-7.29,7.00,-20.62,-31.92,-42.17,56067
-5.58,12.85,0.81,0.48,-6.84,4.44,-28.41,-22.95,-35.19,56101
-0.33,11.45,0.33,0.29,-5.04,2.47,-35.14,-21.88,-31.89,56135
-6.75,8.17,-4.93,-0.97,-1.56,-0.86,-35.68,-20.80,-30.33,56169
-6.04,4.57,-9.61,-0.86,-0.63,-2.55,-34.87,-21.75,-30.97,56204
-1.53,3.32,-4.33,-0.49,-0.85,-1.77,-34.46,-23.38,-30.20,56238
-3.37,12.22,-0.23,-0.82,-0.62,-0.89,-34.77,-22.89,-30.24,56272
3.08,12.39,-3.44,-1.30,0.01,-1.07,-34.46,-22.74,-31.19,56306
4.14,13.58,-5.18,-1.16,0.23,-0.56,-34.55,-22.57,-32.96,56340
4.20,11.35,-2.66,-1.87,1.36,-0.51,-34.58,-22.11,-36.12,56375
8.90,10.94,-2.54,-2.35,2.71,-0.11,-33.56,-20.42,-40.47,56409
9.20,7.49,-13.50,-3.44,5.57,-1.18,-30.90,-18.21,-48.90,56443
10.33,5.99,-18.14,-2.09,6.29,-0.20,-24.95,-14.95,-57.72,56477
-6.97,2.09,-24.33,-1.17,7.24,-1.85,-16.08,-15.16,-62.69,56511
-0.15,8.07,-13.14,-0.12,3.92,0.00,-9.89,-16.21,-64.67,56545
-4.88,5.45,-8.87,-0.43,3.22,-1.50,-3.39,-19.76,-66.73,56580
-6.05,3.24,-10.17,0.17,2.16,-0.51,-1.07,-22.52,-65.67,56614
-12.04,4.79,-8.61,0.97,1.11,0.24,-1.18,-26.88,-64.21,56648
-8.72,6.54,-4.92,1.35,-0.03,1.90,-4.46,-30.43,-61.74,56682
-7.37,11.17,4.95,1.87,-2.44,2.78,-12.13,-32.81,-58.86,56716
-13.08,13.24,5.24,2.01,-3.84,3.77,-23.49,-31.13,-53.14,56750
-19.30,12.04,3.38,1.72,-6.17,4.40,-34.22,-26.92,-44.21,56785
-8.92,13.60,4.08,1.04,-7.94,3.39,-41.63,-20.83,-34.07,56819
-4.81,3.44,-8.49,0.43,-3.89,0.14,-44.43,-17.19,-26.69,56853
-1.87,7.68,-12.30,0.54,-3.88,1.44,-44.26,-13.12,-22.68,56887
-0.61,9.92,-2.91,0.35,-3.35,0.87,-44.18,-8.89,-17.32,56921
1.21,9.96,-4.42,-0.47,-2.77,-0.12,-43.77,-6.87,-14.07,56956
-0.24,9.83,-5.02,-0.65,-1.17,-0.35,-43.51,-4.71,-12.53,56990
0.23,10.28,-1.79,-0.97,-0.35,-0.67,-43.01,-2.56,-12.28,57024
6.37,12.23,-3.36,-1.50,1.02,-1.11,-42.81,-1.72,-12.96,57058
4.75,11.34,-7.47,-2.07,3.13,-1.66,-43.79,-1.13,-17.58,57092
6.14,11.29,-9.11,-2.35,3.83,-1.71,-44.62,0.45,-22.23,57126
5.74,9.36,-12.56,-2.71,3.91,-1.67,-45.00,1.58,-26.37,57161
5.69,8.86,-17.80,-2.44,4.46,-1.18,-45.37,4.63,-31.98,57195
1.80,6.40,-18.48,-1.81,4.30,-0.61,-45.13,6.68,-36.36,57229
1.79,7.55,-14.61,-1.56,4.92,0.35,-43.67,10.17,-41.74,57263
-3.42,5.81,-14.93,-1.12,5.48,-1.04,-39.81,11.44,-49.11,57297
-5.97,2.62,-16.17,-0.27,4.04,-0.94,-36.92,12.44,-53.89,57332
-10.69,3.32,-11.68,0.44,2.16,0.21,-34.99,13.11,-57.22,57366
-12.58,2.91,-2.79,1.67,-0.86,1.31,-34.49,13.02,-56.69,57400
-11.16,8.80,1.76,2.70,-2.68,1.94,-36.66,14.13,-54.87,57434
-9.25,10.17,2.48,2.65,-4.13,2.62,-39.64,17.79,-50.31,57468
-7.50,9.71,2.66,2.27,-5.70,3.59,-41.20,22.36,-43.70,57502
-6.34,13.73,0.77,1.75,-6.44,4.19,-39.96,28.46,-37.69,57537
1.76,17.55,2.76,1.08,-7.57,4.30,-35.33,36.20,-28.56,57571
0.71,12.12,-1.79,0.07,-5.53,1.29,-32.27,39.24,-24.23,57605
-3.96,8.44,-8.45,0.14,-3.88,0.38,-30.31,40.50,-21.98,57639
-5.63,6.71,-4.10,-0.10,-2.42,-0.22,-28.87,41.60,-20.77,57673
-3.60,10.74,-2.49,-0.47,-2.18,-0.29,-27.38,41.74,-20.08,57708
0.82,6.03,-3.05,-1.62,-0.22,-1.93,-28.66,41.77,-19.10,57742
-0.14,9.79,-4.54,-1.86,0.93,-1.01,-28.14,42.05,-19.20,57776
6.45,12.32,0.45,-2.09,1.35,-1.12,-27.93,42.41,-18.75,57810
3.62,12.02,-9.12,-2.39,3.35,-0.98,-26.88,43.91,-19.85,57844
5.19,12.18,-6.86,-2.04,3.23,-0.34,-24.04,44.65,-19.60,57878
2.88,9.95,-12.59,-2.21,3.67,-0.58,-19.18,46.05,-18.66,57913
0.31,6.15,-16.92,-2.03,4.57,-0.13,-13.90,45.72,-17.52,57947
-3.54,4.67,-16.53,-1.11,4.94,-0.11,-7.83,43.77,-15.00,57981
-4.65,4.40,-12.07,-0.74,4.61,-0.64,-2.82,41.13,-12.38,58015
-0.64,6.74,-8.74,-0.26,3.19,-1.10,-0.92,38.44,-9.46,58049
-1.59,8.97,-7.87,-0.08,2.74,-1.15,1.33,35.14,-6.46,58083
-3.62,7.47,-5.51,0.11,1.95,-0.96,2.06,31.56,-2.95,58118
-5.23,9.54,-5.77,0.72,1.10,0.38,4.95,28.72,-0.60,58152
-5.39,8.90,-2.76,0.76,0.39,0.17,7.47,25.36,2.75,58186
-3.46,4.39,-2.82,1.17,-0.46,0.26,10.32,22.33,2.25,58220
-4.95,10.96,-1.71,1.93,-1.52,1.94,14.43,20.23,3.19,58254
-5.34,6.84,0.20,1.81,-2.62,1.67,20.37,16.31,2.63,58289
-4.73,10.39,-0.45,1.66,-3.30,1.40,24.89,12.61,0.57,58323
-6.33,7.61,-2.28,1.57,-2.38,0.11,28.30,9.43,-1.56,58357
1.66,11.05,-2.11,1.68,-2.17,0.98,30.27,6.68,-3.86,58391
1.18,12.65,-1.20,1.39,-1.77,1.29,32.70,2.81,-6.45,58425
-0.36,7.88,-3.96,1.15,-1.56,1.38,35.28,-2.88,-8.20,58459
-6.11,7.30,-5.53,1.12,-1.81,1.97,36.41,-7.91,-11.36,58494
-11.41,9.41,-5.72,1.14,-2.58,2.61,36.31,-13.10,-14.59,58528
-5.97,9.42,-2.31,0.94,-2.72,2.30,34.73,-18.66,-17.83,58562
-7.09,10.34,-2.65,0.57,-2.41,1.49,32.59,-21.62,-21.28,58596
-5.49,8.05,-4.13,0.36,-2.43,1.22,29.44,-24.19,-24.82,58630
-3.50,9.56,-5.72,0.25,-2.44,1.14,27.17,-25.67,-27.45,58665
-1.24,9.28,-5.75,0.28,-2.49,1.27,23.33,-26.37,-28.75,58699
0.43,9.53,-4.16,0.03,-1.97,1.18,19.95,-26.76,-31.86,58733
-3.31,8.41,-3.81,-0.30,-1.64,0.54,17.45,-25.81,-32.32,58767
1.15,11.71,-3.77,-0.54,-1.93,0.42,15.21,-24.14,-33.10,58801
-2.71,9.03,-4.48,-0.69,-1.71,-0.04,14.10,-22.20,-33.75,58835
0.15,9.03,-2.42,-0.93,-0.80,-0.65,13.83,-20.17,-32.94,58870
-0.92,10.10,-1.71,-1.30,-0.02,-0.59,14.38,-17.54,-31.80,58904
0.57,8.03,-3.98,-1.58,0.34,-0.94,16.25,-16.03,-29.67,58938
-0.35,8.61,-5.58,-1.94,1.03,-0.98,18.08,-14.97,-26.82,58972
0.41,7.22,-6.63,-2.24,1.62,-0.93,19.58,-15.71,-23.40,59006
-2.66,6.95,-7.14,-2.21,2.00,-0.94,20.74,-17.41,-19.80,59041
-3.80,8.15,-6.34,-2.08,2.04,-1.05,21.28,-19.92,-16.30,59075
-1.94,6.30,-9.30,-2.00,1.73,-1.17,21.03,-23.17,-15.17,59109
1.40,11.19,-6.99,-1.67,1.75,-0.45,20.40,-25.84,-13.26,59143
2.87,10.17,-4.74,-1.94,2.06,-0.60,19.20,-30.30,-11.93,59177
0.20,9.94,-4.55,-2.22,2.78,-0.33,17.77,-34.22,-12.48,59211
0.20,11.58,-6.76,-2.22,3.36,-0.47,15.52,-38.00,-12.48,59246
-0.74,8.46,-11.14,-2.10,3.15,-0.50,13.14,-41.84,-15.97,59280
-2.47,8.05,-11.66,-1.70,2.85,-0.14,10.10,-44.24,-20.74,59314
4.84,9.70,-8.37,-1.48,2.31,-0.08,8.18,-44.67,-26.59,59348
5.34,14.79,-5.95,-1.40,2.24,0.62,7.95,-42.75,-32.78,59382
-5.07,11.37,-7.04,-1.48,2.76,0.18,9.27,-40.60,-37.36,59416
-1.46,9.81,-6.31,-1.45,2.82,0.37,14.12,-37.43,-41.48,59451
-2.36,9.83,-7.20,-1.58,3.22,0.12,19.51,-35.03,-43.76,59485
-19.38,8.41,-17.59,-2.02,3.44,-0.78,26.81,-32.67,-44.29,59519
-9.44,7.33,-13.48,-0.70,2.58,-0.55,34.52,-31.04,-42.94,59553
-6.21,6.59,-9.89,0.13,1.13,-0.05,39.83,-31.54,-42.01,59587
-3.19,9.60,-0.67,-0.21,1.24,-0.05,44.52,-33.09,-40.57,59622
-4.10,10.20,-1.27,-0.71,1.78,-0.33,49.78,-34.43,-38.79,59656
0.07,9.95,-3.81,-0.89,1.95,-0.16,53.95,-37.14,-36.31,59690
-0.61,8.20,-7.21,-0.96,2.09,-0.11,58.64,-40.95,-32.17,59724
-4.63,6.92,-7.44,-0.67,1.91,-0.00,61.39,-43.89,-29.63,59758
-4.91,7.89,-4.76,-0.46,1.51,-0.06,63.40,-46.80,-23.00,59792
-3.56,9.51,-2.50,-0.52,1.51,-0.03,65.49,-51.11,-23.40,59827
-2.12,9.85,-0.92,-0.52,1.37,-0.06,67.03,-53.83,-20.37,59861
-4.58,8.01,-2.94,-0.91,1.54,-0.52,68.81,-56.68,-18.14,59895
-3.11,9.26,-4.93,-0.90,1.73,-0.44,70.24,-58.30,-15.58,59929
-3.20,9.15,-4.46,-1.01,2.11,-0.63,71.22,-59.56,-12.99,59963
1.51,13.07,-1.65,-1.03,2.75,-0.44,72.81,-61.56,-6.80,59998
0.26,12.96,-8.10,-0.68,1.92,0.50,72.89,-64.28,-2.81,60032
3.49,11.10,-7.16,-0.93,3.51,0.81,69.79,-70.01,4.94,60066
1.74,9.08,-9.38,-1.14,4.63,0.66,62.07,-74.26,12.69,60100
7.60,7.59,-15.92,-1.33,6.28,-0.42,54.22,-76.21,21.46,60134
2.23,8.15,-12.07,-0.58,5.00,-0.37,43.09,-77.68,30.14,60168
-11.64,10.00,-11.73,0.01,3.64,-0.47,33.81,-77.87,34.07,60203
-4.78,7.07,-5.98,-0.59,1.69,0.15,26.98,-78.46,33.81,60237
-13.01,4.99,-5.42,0.05,0.26,0.44,20.39,-77.97,34.64,60271
-10.54,7.63,-1.45,1.06,-2.26,1.41,18.14,-77.16,34.89,60305
-7.16,9.11,-0.48,1.02,-2.88,1.12,18.52,-75.33,36.03,60339
-6.77,7.29,-5.42,0.55,-2.83,-0.49,22.48,-73.63,36.92,60374
-3.40,7.25,-6.36,0.80,-1.19,-0.88,25.69,-72.14,36.35,60408
-8.31,8.20,-4.82,0.70,-1.18,-1.02,29.58,-69.83,37.30,60442
-6.16,8.20,-3.07,0.34,-0.92,-1.07,33.10,-67.63,37.36,60476
-6.63,7.70,-0.91,0.08,-1.05,-1.00,36.01,-65.90,36.50,60510
-5.55,10.76,5.43,0.01,-0.44,-1.44,39.45,-64.12,35.98,60544
-2.85,10.62,-4.95,-0.27,0.08,-1.21,41.79,-63.17,36.07,60579
-2.44,9.72,-0.91,-0.06,0.12,-1.00,43.20,-61.25,36.25,60613
-0.90,10.69,-0.50,-0.37,0.67,-0.76,43.31,-61.44,36.47,60647
0.48,11.24,-3.64,-0.88,0.73,-0.37,42.79,-62.50,37.01,60681
-1.37,11.06,-4.43,-0.94,0.99,0.11,40.13,-65.19,36.86,60715
-10.32,10.86,-6.28,-1.27,1.48,0.58,37.36,-68.23,36.36,60750
-2.46,9.77,-4.56,-0.92,1.48,1.12,33.81,-71.41,36.26,60784
-0.92,10.94,-3.69,-1.34,2.70,1.36,25.83,-75.30,34.62,60818
4.19,11.95,-0.70,-1.62,4.80,0.51,17.10,-78.24,33.29,60852
2.40,6.63,-12.16,-1.81,8.01,-1.81,6.17,-81.95,29.48,60886
-0.64,4.86,-13.38,-0.61,4.36,-0.70,1.84,-84.96,27.07,60920
1.88,7.78,-8.35,-0.55,2.76,-1.14,-1.26,-86.83,25.05,60955
2.05,7.54,-8.04,-0.36,1.66,-1.59,-1.49,-89.24,22.26,60989
-1.90,11.18,-5.51,0.22,1.89,-0.39,-4.37,-90.76,19.79,61023
1.09,5.48,-5.94,-0.38,1.67,-1.47,-5.54,-92.33,14.05,61057
-3.61,10.87,-4.40,-0.05,2.08,0.61,-10.95,-92.41,8.58,61091
-5.47,7.01,-1.21,-0.29,1.26,0.12,-15.27,-90.57,2.50,61125
-9.06,7.10,-5.88,0.05,0.53,0.79,-19.96,-87.69,-4.68,61160
-6.13,5.99,-4.69,0.41,-1.03,0.97,-23.47,-84.49,-6.94,61194
-7.23,8.35,-2.38,1.01,-2.06,1.55,-27.17,-79.77,-7.85,61228
-10.25,7.98,-2.02,0.88,-2.60,1.42,-30.97,-75.11,-6.28,61262
-8.54,5.98,-5.58,0.35,-3.08,0.46,-31.56,-72.70,-4.93,61296
-7.60,7.38,0.00,0.94,-3.52,0.77,-31.88,-69.80,-0.53,61331
-4.14,7.71,-4.09,0.47,-2.26,-0.60,-30.43,-69.38,1.29,61365
-2.86,7.90,-6.68,0.79,-1.91,-0.38,-27.95,-69.37,3.00,61399
6.05,10.13,-3.57,1.12,-2.89,-0.29,-25.78,-67.74,6.62,61433
-1.25,10.16,0.17,0.43,-0.97,-0.80,-25.87,-66.63,7.88,61467
-2.22,8.42,-4.04,-0.16,-0.56,-1.10,-23.71,-67.09,6.99,61501
-3.42,8.78,-3.85,-0.20,-0.35,-1.06,-21.82,-67.86,4.74,61536
-4.71,8.40,-1.44,-0.46,0.13,-1.04,-21.06,-67.85,1.59,61570
-2.49,9.81,0.76,-0.60,0.40,-1.37,-19.73,-68.08,-2.54,61604
-1.30,11.79,-1.25,-0.98,0.54,-0.95,-19.18,-69.37,-6.61,61638
0.80,15.13,-3.32,-1.15,1.24,0.01,-19.41,-68.20,-11.88,61672
2.54,9.01,-11.39,-1.53,1.44,0.43,-21.81,-66.38,-20.01,61707
2.52,8.84,-7.21,-1.29,2.12,0.89,-23.95,-63.10,-27.46,61741
-3.14,7.86,-11.92,-1.84,4.09,0.57,-24.41,-57.44,-37.66,61775
9.69,9.58,-7.01,-1.38,4.85,0.50,-21.50,-52.92,-44.78,61809
1.96,4.77,-15.04,-1.11,6.47,-1.47,-11.74,-49.15,-52.00,61843
-6.89,5.43,-10.72,-0.59,4.02,-1.99,-1.26,-46.21,-53.79,61877
-3.36,5.64,-5.15,-0.61,1.44,-1.53,3.64,-44.18,-53.57,61912
0.41,9.08,-4.84,-0.25,0.95,-1.14,6.34,-42.14,-51.83,61946
-6.10,9.10,-5.04,-0.06,1.26,-0.85,8.93,-40.43,-50.67,61980
-1.58,10.65,-3.72,-0.08,1.17,-0.45,9.81,-39.77,-48.79,62014
-5.25,8.76,-5.52,-0.16,1.66,-0.31,11.34,-38.94,-46.77,62048
-5.25,7.56,-4.82,0.35,1.48,-0.09,11.28,-38.56,-45.51,62083
-2.20,6.53,-6.97,0.55,1.23,-0.26,11.12,-37.80,-43.79,62117
-4.58,6.76,-4.67,0.75,0.79,0.34,9.69,-37.55,-41.38,62151
-3.34,7.37,-6.31,1.04,0.56,0.72,8.02,-37.61,-40.51,62185
-6.84,5.92,-4.50,1.53,-0.30,1.70,5.28,-33.91,-39.29,62219
-13.15,9.70,0.03,1.87,-2.12,2.79,0.18,-37.17,-38.18,62253
-9.57,11.20,3.05,2.00,-3.94,3.33,-5.25,-36.82,-37.12,62288
-0.49,7.94,-1.41,1.18,-4.06,2.61,-11.53,-34.89,-34.45,62322
-0.07,10.38,-5.38,1.16,-3.92,3.21,-16.40,-33.19,-34.10,62356
3.47,12.28,-6.72,1.36,-4.45,3.98,-21.60,-30.59,-31.96,62390
4.02,13.93,-2.16,1.32,-5.16,4.84,-27.29,-24.77,-27.43,62424
9.85,18.70,4.81,1.03,-6.34,5.64,-31.73,-18.88,-22.99,62458
3.50,19.70,4.77,0.34,-5.38,4.80,-33.69,-10.60,-19.00,62493
-8.52,18.42,4.33,0.12,-5.31,5.18,-34.43,-4.52,-15.71,62527
-18.39,15.52,1.97,-0.10,-5.56,4.46,-35.02,1.64,-12.25,62561
-5.83,8.42,-4.22,-1.50,-4.50,0.41,-34.45,3.70,-7.41,62595
-16.20,4.77,-9.30,-0.55,-1.97,0.22,-35.25,3.76,-6.49,62629
-14.25,4.48,-5.07,-1.02,-2.36,-0.98,-34.49,3.70,-4.49,62664
-6.75,1.57,-11.54,-0.70,-0.62,-2.35,-35.40,1.15,-3.86,62698
-3.64,10.77,2.10,-0.44,-1.06,-1.66,-35.52,0.03,-3.95,62732
-0.47,6.01,0.83,-0.89,-0.54,-2.30,-36.41,-2.62,-3.55,62766
-3.00,9.73,-2.85,-0.67,-0.25,-1.10,-36.55,-3.77,-3.64,62800
-6.18,8.42,-0.43,-0.85,0.10,-1.02,-36.55,-5.31,-4.11,62834
-2.10,9.23,-1.04,-1.21,0.42,-1.13,-37.34,-7.09,-6.61,62869
1.64,11.82,-9.71,-1.35,0.36,-0.81,-37.81,-8.62,-7.69,62903
6.93,15.89,-7.17,-1.82,0.62,-0.32,-39.24,-8.70,-10.20,62937
14.98,16.58,-5.83,-2.50,2.32,0.54,-39.71,-6.93,-14.38,62971
10.47,15.19,-9.94,-3.49,7.49,1.46,-39.43,-1.46,-24.70,63005
10.10,11.11,-17.54,-3.16,7.88,0.64,-34.52,7.09,-39.46,63040
0.47,2.53,-29.83,-2.91,11.47,-3.13,-23.41,12.99,-47.88,63074
6.18,-1.53,-24.27,-1.70,6.05,-2.10,-15.24,18.88,-48.87,63108
-3.70,8.25,-10.35,-0.49,3.71,0.22,-8.99,25.31,-46.86,63142
-5.21,9.12,-6.52,-0.92,4.24,-1.59,-6.26,30.93,-44.34,63176
-11.68,3.67,-14.03,-0.78,3.09,-1.09,-5.07,36.14,-40.22,63210
-9.11,7.79,-5.32,1.00,0.85,0.98,-2.16,39.17,-38.80,63245
-8.52,4.57,-7.82,1.13,-0.09,-0.02,-1.21,41.86,-38.70,63279
-5.55,8.08,-0.99,1.40,-0.68,0.52,0.58,44.20,-39.61,63313
-7.25,1.46,-6.37,1.26,-0.76,-1.08,-0.76,45.81,-39.99,63347
-10.05,5.41,-2.80,1.91,-1.13,0.35,0.28,46.57,-43.09,63381
-7.22,5.75,0.41,2.00,-1.51,0.58,1.14,46.67,-45.02,63416
-1.83,10.53,0.77,2.06,-1.66,1.80,2.75,46.11,-48.35,63450
-4.79,13.07,2.89,1.84,-2.46,3.64,7.61,44.71,-51.01,63484
-0.60,11.08,-7.62,2.45,-4.09,4.87,12.32,41.70,-54.74,63518
-5.02,11.19,-15.32,2.10,-8.38,6.98,15.61,36.16,-60.07,63552
12.10,14.27,5.40,1.37,-8.97,5.67,12.89,30.24,-65.30,63586
-9.18,6.21,-3.23,-0.55,-1.96,0.01,11.49,29.83,-65.24,63621
-4.54,7.19,-3.68,0.06,-2.79,1.16,10.23,28.97,-65.23,63655
-2.98,8.97,-3.71,0.08,-2.83,0.75,8.58,27.89,-65.64,63689
-2.18,9.14,-5.92,0.34,-2.31,1.27,8.14,26.21,-65.81,63723
-3.51,14.05,0.51,1.11,-3.28,3.36,7.67,23.27,-67.35,63757
-1.70,12.22,3.10,0.08,-3.46,1.46,5.52,20.26,-68.33,63791
-2.31,9.25,-4.79,-1.10,-1.75,-0.56,2.76,19.92,-68.27,63826
-1.36,8.65,-5.75,-1.49,-1.08,-0.84,1.30,21.16,-66.75,63860
-0.48,10.05,-7.89,-1.99,-0.00,-1.09,1.55,22.26,-65.46,63894
4.34,13.08,-1.38,-1.79,0.54,-0.44,3.67,23.17,-64.13,63928
3.22,12.07,-6.67,-2.64,2.14,-0.76,8.32,24.32,-62.19,63962
4.93,9.08,-12.10,-3.62,5.31,-0.70,16.85,26.35,-57.28,63997
5.72,7.38,-19.97,-4.14,10.41,-2.14,29.10,29.33,-42.08,64031
3.19,7.06,-18.64,-3.43,9.48,-2.24,35.79,30.20,-25.27,64065
0.60,7.28,-14.89,-1.86,4.96,-1.39,35.74,29.87,-11.74,64099
7.31,9.87,-8.89,-1.19,3.32,-0.91,33.85,28.47,-4.85,64133
3.40,8.49,-11.09,-1.23,3.68,-1.09,29.42,26.95,2.05,64167
5.96,7.16,-15.68,-1.32,3.82,-1.30,22.61,25.20,10.41,64202
0.66,10.04,-11.94,-1.58,4.06,-0.61,16.31,23.62,15.80,64236
-3.33,7.34,-13.80,-1.43,4.09,-0.71,7.79,21.98,18.80,64270
-8.40,2.17,-12.72,-0.54,3.85,-0.26,-2.15,21.32,18.72,64304
-14.12,4.65,-10.56,0.58,1.97,0.85,-6.94,23.24,15.19,64338
-9.50,5.97,-6.31,1.08,0.47,1.00,-8.61,26.29,10.77,64373
-14.56,5.96,-3.95,1.26,-0.66,1.58,-7.67,28.60,7.25,64407
-14.17,6.34,-2.21,1.68,-1.24,1.53,-5.98,30.69,5.04,64441
-11.27,7.00,1.71,1.84,-2.00,1.23,-3.54,32.77,2.18,64475
-2.63,6.02,-0.35,1.85,-1.78,0.73,-2.81,33.89,-0.35,64509
4.15,8.07,-6.70,2.36,-2.45,1.53,-1.01,35.30,-3.08,64543
7.32,10.91,-9.05,2.29,-3.29,3.26,2.65,36.76,-7.41,64578
7.26,11.07,-6.54,2.15,-3.86,3.85,7.98,37.85,-11.66,64612
2.37,12.74,0.25,2.06,-6.05,4.98,15.19,36.83,-19.48,64646
2.84,19.58,5.52,1.80,-6.96,5.69,20.94,33.65,-26.98,64680
-4.15,24.38,3.26,1.30,-5.78,4.80,25.04,31.91,-32.89,64714
-9.62,14.82,4.50,1.02,-4.42,3.19,28.35,28.38,-37.40,64749
-7.41,15.53,5.07,-0.07,-4.05,3.73,32.13,25.87,-39.17,64783
-1.62,9.67,-2.69,0.19,-3.93,3.30,36.25,21.12,-40.85,64817
-0.87,2.04,-4.93,-0.80,-3.37,2.30,41.25,13.74,-41.33,64851
-3.52,7.59,-0.38,-0.62,-2.86,1.15,42.69,8.42,-41.41,64885
-2.07,14.15,-1.79,-1.69,-1.79,-0.97,43.88,5.06,-40.15,64919
-4.18,7.44,-6.48,-2.38,-0.16,-1.31,44.83,4.38,-37.11,64954
-3.51,9.06,-4.38,-1.87,0.79,-1.27,46.35,2.95,-34.43,64988
4.43,10.61,-5.34,-2.68,2.20,-1.22,48.07,0.94,-28.11,65022
3.73,7.89,-9.39,-2.81,3.68,-1.39,49.43,-1.46,-20.70,65056
9.76,9.70,-10.24,-3.26,5.40,-1.65,49.36,-2.94,-9.16,65090
1.43,4.69,-23.91,-3.51,8.09,-2.55,44.96,-3.61,4.34,65125
3.47,6.58,-20.56,-2.72,6.78,-1.86,37.09,-4.87,14.21,65159
9.15,13.58,-5.06,-2.06,5.73,-0.69,25.69,-5.57,21.02,65193
-3.18,6.79,-13.85,-1.82,7.28,-2.10,13.04,-4.75,24.82,65227
-0.98,5.36,-16.14,-1.20,4.93,-0.87,3.39,-3.62,24.48,65261
-4.20,6.69,-13.61,-0.43,3.35,-0.40,-4.50,-1.36,23.12,65295
-5.32,5.15,-12.98,-0.02,2.33,-0.77,-8.68,0.42,21.13,65330
-4.56,4.44,-10.64,0.05,1.90,-0.98,-12.86,3.00,19.37,65364
-9.61,5.69,-6.88,0.25,1.78,-0.90,-16.12,4.36,18.18,65398
-3.97,6.48,-5.88,0.55,1.60,-0.51,-18.42,5.89,16.25,65432
-3.33,6.73,-2.09,0.96,1.42,0.12,-20.89,8.10,14.26,65466
-2.42,10.81,1.79,1.37,0.06,2.11,-21.13,11.34,12.51,65500
-7.82,8.73,0.86,1.63,-2.39,3.32,-17.58,15.76,12.32,65535
-26.02,6.85,-6.37,2.52,-3.85,4.47,-10.63,20.90,11.69,65569
-17.16,9.17,-0.59,2.26,-9.14,5.58,1.65,23.31,10.77,65603
9.52,11.53,-2.06,1.70,-8.22,3.87,14.98,22.71,6.52,65637
13.37,11.02,-15.87,1.14,-3.55,2.40,21.03,21.56,3.46,65671
1.20,7.02,-7.21,0.37,-3.28,1.96,24.13,20.53,2.22,65706
0.40,11.80,-1.46,0.76,-3.31,2.92,29.16,17.39,-2.28,65740
-2.47,13.61,2.05,0.50,-3.44,2.39,32.97,14.56,-5.93,65774
-1.62,9.18,-3.25,0.15,-3.24,1.63,36.20,11.37,-8.97,65808
-3.75,12.41,-5.23,0.27,-4.17,3.02,39.81,6.47,-13.10,65842
-4.88,8.55,-3.35,-0.38,-3.18,0.76,40.40,2.95,-16.85,65876
-1.67,6.94,-4.15,-0.71,-2.15,-0.52,40.25,1.94,-19.09,65911
-8.52,8.23,-3.10,-1.17,-0.84,-1.46,39.65,2.31,-19.18,65945
-0.62,3.58,-7.05,-1.30,-0.11,-2.54,39.16,3.80,-18.56,65979
2.05,11.68,-3.03,-1.05,0.15,-1.22,38.45,4.60,-17.51,66013
2.13,12.37,-0.07,-1.71,0.61,-1.55,38.03,5.33,-15.36,66047
1.20,10.91,-6.05,-2.34,1.58,-1.08,37.18,5.28,-12.23,66082
1.69,7.09,-6.03,-2.33,1.55,-1.01,36.42,4.11,-9.21,66116
-0.04,10.31,-10.63,-2.62,2.99,-1.15,35.43,2.38,-5.07,66150
4.17,13.41,-6.46,-2.09,3.16,-0.25,33.46,-1.01,-1.10,66184
4.77,14.77,-5.01,-2.50,4.79,0.26,30.31,-4.44,4.78,66218
7.23,13.02,-9.60,-2.89,6.85,-0.29,24.07,-8.49,9.21,66252
11.01,6.29,-24.02,-2.56,9.58,-1.75,11.88,-11.87,13.42,66287
-0.66,3.69,-20.89,-1.00,3.89,0.01,4.25,-13.12,12.15,66321
-2.27,6.71,-6.68,-0.09,1.53,-0.37,-1.10,-12.70,10.01,66355
-6.90,7.13,-8.56,-0.34,2.18,-1.02,-5.07,-11.82,7.12,66389
-3.65,6.43,-5.01,-0.15,1.17,-1.02,-8.26,-10.74,4.91,66423
2.41,8.29,-6.51,-0.15,1.16,-0.93,-10.99,-9.11,2.13,66458
-4.37,7.76,-7.86,-0.15,1.47,-0.75,-12.93,-7.95,-0.50,66492
-5.67,8.70,-4.39,-0.09,1.46,-0.16,-15.05,-6.01,-2.79,66526
-7.13,5.47,-6.41,0.04,1.37,-0.31,-16.47,-3.20,-5.55,66560
-9.94,3.91,-9.68,-0.01,0.66,-0.07,-17.44,-0.99,-7.76,66594
-12.14,6.07,-3.90,0.69,-0.13,0.98,-17.09,2.43,-8.37,66628
-8.83,5.55,-3.42,0.93,-0.34,0.47,-16.81,4.27,-9.46,66663
-7.02,8.69,2.45,1.51,-0.48,0.88,-16.53,6.30,-9.79,66697
-1.47,10.02,3.59,1.92,-0.67,1.29,-15.45,8.61,-11.17,66731
1.33,12.06,2.27,1.90,-1.52,2.51,-13.94,11.31,-13.27,66765
3.87,10.58,-3.41,1.66,-3.54,4.11,-11.52,14.26,-13.90,66799
-5.03,12.31,-4.94,1.86,-6.64,6.22,-4.91,17.77,-15.23,66833
0.35,12.43,-0.17,2.06,-8.98,7.20,2.41,18.88,-18.46,66868
-2.55,16.64,-0.54,0.16,-6.42,3.91,7.38,19.06,-21.59,66902
-9.82,8.97,-5.91,-0.40,-4.37,2.42,10.10,19.86,-23.62,66936
-9.74,9.10,-5.06,-0.14,-4.35,2.63,12.10,19.61,-26.59,66970
-9.14,5.91,-4.42,-0.48,-3.40,0.51,12.64,19.48,-28.73,67004
-6.07,4.99,-5.55,-0.39,-2.59,-0.82,12.12,19.94,-29.33,67039
1.21,7.95,-4.91,-0.13,-2.39,-0.82,9.51,20.53,-30.18,67073
-0.07,8.08,-4.65,-0.67,-1.02,-1.51,8.81,21.32,-30.85,67107
1.67,9.22,-4.48,-0.72,-0.71,-1.79,7.70,21.89,-30.78,67141
0.06,12.34,-2.77,-0.58,-0.64,-1.44,5.95,22.52,-30.71,67175
4.29,14.05,-0.71,-0.83,-0.41,-2.08,5.19,23.19,-30.78,67209
2.18,13.32,-6.30,-1.89,0.66,-1.38,4.56,24.17,-28.63,67244
2.70,10.87,-5.94,-1.91,0.71,-0.87,4.97,24.88,-27.16,67278
4.86,14.60,-5.55,-2.32,1.61,0.17,7.12,24.22,-25.05,67312
7.05,10.94,-10.65,-2.16,2.35,1.15,10.14,23.31,-22.36,67346
-0.91,9.56,-9.30,-2.79,3.80,1.36,16.14,21.69,-19.54,67380
4.56,7.66,-13.61,-3.02,6.10,0.45,20.23,18.50,-13.96,67415
-0.66,0.65,-27.93,-1.92,9.59,-2.37,19.53,15.33,-5.06,67449
-11.66,3.28,-15.29,-0.96,5.82,-1.52,16.79,12.64,0.73,67483
-8.75,6.98,-5.88,-0.05,1.57,-0.81,15.30,10.03,2.94,67517
-3.15,8.15,-2.35,-0.13,0.82,-1.24,13.23,7.63,4.28,67551
-3.98,8.65,-8.57,-0.30,0.30,-1.94,11.22,6.31,4.53,67585
0.24,9.36,-8.37,-0.33,1.19,-1.20,7.47,4.47,4.91,67620
-4.38,9.06,-3.58,-0.16,1.36,-0.54,4.11,2.81,4.25,67654
-3.99,1.76,-5.78,-0.22,1.24,-1.08,0.06,2.13,3.11,67688
-6.78,9.34,-3.75,0.59,0.89,0.63,-3.95,2.40,0.89,67722
-5.13,6.85,-2.59,0.07,-0.17,-0.03,-6.15,3.42,-0.12,67756
-8.08,4.39,-9.52,0.32,0.02,0.28,-8.46,4.43,-1.80,67791
-11.68,2.72,-6.96,1.73,-0.99,1.12,-10.06,6.94,-3.19,67825
-6.45,6.90,0.22,2.26,-2.27,1.87,-9.12,9.59,-4.56,67859
-5.57,10.31,-0.34,2.01,-2.31,0.84,-8.07,11.88,-5.26,67893
-1.69,8.37,-2.35,1.66,-2.00,0.63,-8.26,13.11,-6.62,67927
-3.07,8.93,-3.79,1.79,-1.66,1.07,-7.64,14.13,-7.41,67961
-5.12,8.71,-8.72,1.95,-2.20,1.80,-5.10,16.24,-8.49,67996
-2.24,10.49,-7.32,1.70,-2.90,3.07,-2.21,17.49,-10.01,68030
-3.04,9.74,-6.72,1.76,-4.04,4.33,2.44,18.31,-11.50,68064
1.49,12.79,-2.77,1.99,-7.03,5.72,8.92,18.27,-15.35,68098
5.98,18.78,4.83,1.20,-6.95,3.68,12.51,16.82,-20.53,68132
-10.22,9.73,0.40,-0.09,-3.85,-0.01,13.05,14.91,-22.81,68166
-3.57,8.68,-2.27,-0.67,-2.52,0.20,12.69,14.06,-23.46,68201
-6.75,9.88,-1.59,-0.73,-2.42,-0.02,11.91,12.06,-24.51,68235
-7.76,7.56,-3.98,-1.35,-0.69,-1.00,10.60,10.79,-24.57,68269
-4.05,5.72,-4.49,-1.15,-0.21,-1.04,9.24,10.06,-24.17,68303
-2.61,8.91,-5.11,-1.14,0.22,-0.92,8.62,9.21,-23.81,68337
3.20,10.97,-9.90,-1.47,0.82,-0.22,7.44,8.64,-24.33,68372
1.28,10.63,-6.91,-2.56,3.30,0.86,7.60,7.91,-23.84,68406
4.70,17.19,5.65,-2.97,5.63,1.06,8.52,7.34,-22.81,68440
21.82,5.89,-22.67,-3.71,12.23,-3.69,8.73,9.09,-19.56,68474
-6.27,2.80,-25.00,-2.57,10.30,-2.48,7.64,11.20,-16.62,68508
7.65,7.53,-10.50,-0.85,0.68,-0.59,7.64,13.62,-15.73,68542
-6.14,7.39,-7.47,-0.57,1.53,-0.76,7.99,15.64,-13.93,68577
-5.31,6.93,-6.21,-0.47,1.46,-0.54,8.35,17.10,-10.98,68611
-2.57,9.46,-4.27,-0.91,2.33,-0.93,8.49,18.21,-8.13,68645
1.67,11.13,-4.84,-0.79,2.23,-0.48,7.37,18.42,-5.48,68679
2.28,6.08,-9.33,-1.03,2.84,-1.19,4.76,18.74,-2.06,68713
-0.85,7.81,-5.84,-0.84,3.26,-0.14,2.05,18.49,0.38,68748
-3.78,8.78,-8.86,-0.46,2.02,0.42,-1.02,18.77,1.23,68782
-5.46,2.67,-7.56,-0.31,1.55,0.07,-2.79,19.53,1.02,68816
-10.12,4.51,-9.39,0.58,1.25,0.49,-4.57,20.97,1.04,68850
-11.14,5.49,-3.31,0.85,0.87,0.47,-5.12,22.87,-0.12,68884
-12.73,4.13,-2.79,1.03,-0.00,0.21,-5.89,23.87,-0.91,68918
-5.98,6.76,-4.28,1.21,-1.56,0.88,-3.73,24.88,-1.17,68953
-3.36,6.29,-7.12,1.84,-1.55,1.24,-1.96,26.83,-3.32,68987
-2.19,8.71,-4.11,2.23,-2.40,2.21,1.84,27.73,-5.89,69021
-0.20,12.69,1.08,2.37,-3.57,3.34,6.11,27.87,-9.05,69055
-1.70,13.32,-0.18,1.84,-4.65,4.06,12.89,26.86,-12.38,69089
6.54,15.08,-3.83,1.48,-6.51,4.90,18.39,24.31,-16.71,69124
-3.82,11.25,-7.45,1.02,-5.40,3.27,22.62,19.53,-22.05,69158
5.55,12.84,-4.01,0.94,-5.62,3.21,23.98,16.28,-27.39,69192
-9.22,8.83,-0.28,0.37,-4.52,1.77,23.43,13.40,-30.84,69226
-5.25,10.64,-2.59,0.42,-4.83,1.66,22.08,10.98,-34.35,69260
0.16,15.03,-4.82,0.50,-4.98,1.73,19.34,9.25,-37.96,69294
-2.08,9.88,3.72,-1.01,-1.47,-1.32,17.23,8.46,-38.00,69329
2.60,9.70,-3.07,-1.37,-0.89,-1.14,15.46,9.37,-36.89,69363
-2.49,10.55,-3.71,-1.34,0.13,-0.35,15.23,9.66,-35.56,69397
-2.11,8.10,-5.38,-1.77,0.59,-0.83,14.67,9.50,-33.41,69431
-1.10,6.00,-7.78,-1.92,1.12,-0.97,14.62,9.60,-31.89,69465
-0.04,7.92,-7.33,-2.24,1.88,-0.82,14.78,10.33,-29.51,69500
0.23,10.28,-4.13,-2.24,2.64,-0.38,15.57,10.63,-25.48,69534
7.34,12.26,-3.97,-2.47,4.09,-0.30,16.18,10.04,-21.47,69568
7.06,8.78,-12.14,-2.70,6.95,-1.16,15.99,9.73,-15.77,69602
0.41,6.13,-20.99,-2.26,7.47,-1.41,12.61,9.66,-11.09,69636
-0.63,2.34,-18.05,-1.34,5.44,-1.26,8.67,9.25,-7.07,69670
-2.10,5.77,-10.89,-0.72,3.87,-1.39,4.08,8.80,-5.82,69705
-8.58,6.10,-8.95,-0.28,2.71,-1.37,-1.10,8.46,-5.58,69739
-6.60,6.35,-9.57,0.16,1.96,-1.26,-4.84,9.09,-6.49,69773
-6.59,8.13,-5.36,0.18,1.18,-0.48,-8.67,9.28,-7.91,69807
-3.38,6.16,-4.73,0.18,1.04,-0.53,-11.52,10.00,-9.57,69841
-5.71,7.74,-4.84,0.56,1.25,0.29,-14.85,11.43,-12.47,69875
-5.76,9.02,0.82,0.66,0.56,0.81,-16.95,13.17,-15.80,69910
