ax,ay,az,gx,gy,gz,mx,my,mz,timestamp
2.05,9.54,0.12,0.28,0.12,-0.12,45.03,-21.03,-15.24,48263
1.87,9.69,0.25,0.25,0.08,-0.18,44.88,-21.31,-15.20,48297
1.70,9.59,0.43,0.18,-0.05,-0.18,44.75,-20.68,-13.90,48332
1.07,9.88,0.19,0.18,-0.12,-0.22,45.02,-20.62,-14.48,48366
0.57,9.62,-0.17,0.25,-0.50,-0.42,45.76,-21.13,-14.69,48400
1.33,9.77,0.14,0.43,-1.13,-0.64,45.94,-19.83,-15.89,48434
2.99,10.64,-0.72,0.30,-1.39,-0.30,47.08,-19.41,-17.42,48468
2.08,8.55,0.37,-0.16,-0.47,-0.09,47.21,-19.56,-18.27,48502
2.57,8.83,-0.87,0.08,-0.38,-0.29,46.70,-18.81,-19.41,48537
2.21,9.32,-1.33,0.27,-0.49,-0.45,47.30,-18.59,-19.66,48571
2.35,9.40,-0.98,0.27,-0.26,-0.65,47.30,-17.41,-19.63,48605
1.59,9.55,-0.80,0.12,-0.20,-0.55,47.19,-17.10,-19.94,48639
1.29,9.75,-1.36,0.12,-0.48,-0.50,47.40,-16.60,-21.12,48673
0.32,9.49,-1.96,-0.00,0.55,-0.65,47.71,-15.90,-19.82,48708
-1.58,9.72,-1.37,0.01,0.29,-0.64,47.87,-14.70,-18.93,48742
-2.05,9.83,-0.10,-0.02,0.25,-0.69,47.95,-13.62,-18.58,48776
-1.21,10.03,1.40,-0.31,-0.25,-0.70,48.51,-12.19,-17.90,48810
1.23,10.51,-0.41,-0.59,-0.28,-0.87,48.67,-10.41,-19.22,48844
6.38,11.25,-4.46,-1.26,-0.76,-0.97,47.95,-7.75,-20.37,48878
7.79,16.12,-9.65,-0.06,-1.02,-0.90,47.84,-5.92,-20.80,48913
-3.41,18.78,-4.13,0.19,-3.05,-1.34,46.73,-3.33,-25.42,48947
4.50,15.10,-5.07,1.18,-1.65,-2.72,43.25,2.43,-30.11,48981
2.03,8.21,-2.90,1.50,0.53,-3.40,39.84,7.37,-30.82,49015
3.51,4.89,-0.70,1.93,1.91,-2.74,37.87,10.57,-30.44,49049
1.54,4.12,0.25,2.35,2.46,-1.25,36.50,12.04,-30.78,49083
1.33,4.94,0.84,2.17,1.84,0.15,36.74,10.55,-29.55,49118
1.01,6.70,2.55,1.67,0.63,1.80,38.31,7.44,-29.57,49152
1.55,8.43,6.00,1.02,0.89,2.62,40.00,3.42,-29.89,49186
-0.59,11.09,4.66,0.59,2.45,2.56,41.92,-1.40,-26.26,49220
-9.02,11.63,-2.76,-0.66,2.81,1.68,43.58,-5.39,-19.83,49254
-17.85,8.76,-7.11,-1.24,1.59,0.91,44.61,-7.88,-16.35,49289
-0.30,39.16,-15.52,0.20,-0.03,2.41,44.49,-10.80,-16.63,49323
-5.25,-3.77,10.45,0.03,-1.67,-0.26,43.99,-10.46,-17.67,49357
-1.70,9.41,-2.43,0.09,-0.38,-0.73,43.83,-10.86,-17.96,49391
1.09,10.99,-0.98,-0.07,-0.56,-0.12,43.70,-12.44,-17.87,49425
1.16,8.96,-5.19,-0.36,-0.48,0.19,43.12,-13.72,-17.67,49459
0.48,9.22,-3.37,-0.46,-0.47,0.16,42.01,-15.61,-18.53,49494
0.94,10.02,-3.52,-0.61,-0.11,0.10,41.44,-17.85,-18.61,49528
0.10,8.20,-3.85,-0.96,0.54,-0.24,40.46,-18.66,-17.32,49562
-1.18,9.01,-2.43,-0.55,0.54,-0.31,39.70,-20.08,-16.53,49596
-1.73,8.78,-4.02,-0.65,0.48,-0.56,39.20,-21.24,-16.14,49630
-3.45,9.09,-1.73,-0.38,0.18,-0.70,39.05,-21.88,-17.04,49665
-0.43,8.38,-3.24,-0.46,-0.08,-0.92,38.82,-21.41,-17.16,49699
-0.57,9.28,-1.80,0.04,-0.23,-0.90,39.07,-21.18,-17.83,49733
3.90,10.62,-0.93,0.00,-0.32,-0.76,39.64,-21.84,-18.09,49767
7.73,12.60,-2.03,-0.05,-0.18,-0.19,39.90,-23.17,-19.06,49801
15.34,18.22,8.12,-1.07,0.97,1.16,38.48,-26.06,-20.77,49835
7.13,21.62,10.79,-2.98,1.46,2.57,35.66,-32.74,-24.29,49870
0.31,22.99,-24.08,-1.52,0.43,6.65,28.31,-40.81,-32.78,49904
5.24,5.08,-20.87,-1.10,-6.74,0.52,22.41,-39.67,-42.30,49938
-9.55,-7.64,-20.49,2.24,-7.83,0.74,13.56,-42.12,-46.29,49972
-17.72,-9.08,0.62,2.67,-8.59,0.76,7.66,-45.81,-46.95,50006
-27.35,39.10,39.20,2.25,-6.92,0.19,4.66,-51.18,-45.64,50041
-0.11,-37.23,17.74,-0.48,1.78,-2.12,7.99,-52.09,-44.87,50075
21.67,27.43,-17.10,1.29,-0.27,0.45,12.60,-50.50,-47.19,50109
4.17,14.74,3.91,0.03,-1.83,0.78,12.91,-51.42,-46.92,50143
2.00,12.88,-0.63,-1.43,-1.28,1.36,11.01,-50.42,-50.09,50177
-13.49,12.33,-4.49,-3.05,1.72,0.72,11.47,-47.19,-51.83,50211
-7.26,1.34,-16.91,-0.64,3.01,-1.86,16.53,-43.82,-52.78,50246
18.32,23.75,-19.25,1.97,9.98,-10.19,31.13,-38.75,-43.06,50280
-4.37,-34.00,6.47,1.96,5.31,-7.53,45.32,-27.05,-28.52,50314
29.38,-10.65,33.95,0.62,0.09,1.05,45.95,-28.28,-25.96,50348
3.13,16.49,-28.01,1.27,8.88,3.15,47.24,-37.23,-12.20,50382
38.34,39.16,28.06,0.08,2.89,2.47,46.86,-45.00,-2.51,50416
19.31,0.78,-25.24,3.64,-1.83,-2.48,44.07,-50.48,-3.10,50451
12.43,14.41,-14.71,-1.40,0.22,1.60,43.15,-54.37,-4.63,50485
-22.25,6.08,4.67,-0.33,0.74,-1.44,37.17,-60.92,-8.26,50519
-13.03,-3.36,-6.71,-1.56,1.09,-0.43,34.05,-64.12,-11.06,50553
0.28,20.85,-7.77,-0.54,-0.38,0.76,30.47,-67.35,-14.22,50587
10.33,14.03,-5.04,-0.97,-0.49,0.53,28.46,-69.32,-18.61,50622
27.19,10.21,2.46,-2.66,-1.30,2.35,22.74,-70.91,-25.94,50656
-23.31,24.33,-18.61,-3.11,-1.23,5.66,6.42,-71.78,-35.33,50690
6.73,6.95,-19.91,-1.23,-10.06,-0.81,1.58,-69.20,-38.00,50724
-20.36,-31.04,-10.89,2.59,-8.22,-1.53,1.71,-67.49,-30.33,50758
-14.60,-3.51,8.38,5.76,-8.12,1.02,-0.04,-67.58,-18.75,50792
39.16,39.16,-21.14,2.42,-1.29,6.72,-7.95,-65.38,-11.30,50827
19.66,-12.80,6.43,-0.61,-1.78,-3.43,6.58,-63.23,-15.17,50861
-11.44,11.10,1.05,0.12,-0.98,-2.45,10.22,-61.37,-15.29,50895
-7.78,12.85,-13.43,0.10,-1.41,-0.87,12.93,-59.49,-17.03,50929
-1.66,17.30,-7.52,-0.62,-1.85,0.32,13.78,-57.02,-21.18,50963
25.58,25.86,-19.09,0.41,-1.46,-0.26,14.05,-54.49,-23.18,50998
25.88,34.30,-13.13,-1.04,-0.56,-5.07,17.13,-50.07,-24.31,51032
1.57,-26.86,-17.33,-1.61,0.90,-5.05,22.32,-45.92,-22.84,51066
25.28,-14.58,10.89,-0.27,9.99,-2.13,24.63,-44.11,-13.15,51100
8.94,-1.34,9.70,-2.02,9.64,3.16,15.43,-49.21,-4.06,51134
-39.20,22.86,-39.16,0.32,8.39,-0.05,6.26,-54.06,-5.74,51168
-35.85,25.25,17.82,3.28,-1.57,-8.22,0.85,-55.73,-5.41,51203
-1.11,30.56,-17.40,2.50,0.11,-1.00,3.27,-56.14,-3.58,51237
9.83,24.41,-10.24,-0.23,-1.45,0.85,1.64,-56.24,-7.29,51271
13.63,1.55,3.15,-1.64,0.36,1.72,-3.74,-55.42,-12.20,51305
-20.84,13.09,-0.93,-2.08,2.37,1.95,-10.67,-53.46,-18.37,51339
-13.16,6.20,-12.69,-0.94,3.71,-0.66,-13.53,-51.33,-23.57,51374
-9.03,-6.32,-12.11,-0.04,0.53,-2.66,-10.80,-50.63,-25.61,51408
6.52,11.14,-4.54,0.40,-1.35,-0.94,-9.79,-50.96,-24.69,51442
1.16,6.59,-4.18,-0.59,-0.34,-1.73,-7.92,-51.32,-25.33,51476
0.12,11.04,-4.18,-0.33,0.35,-0.93,-7.47,-50.67,-26.89,51510
1.84,8.89,-2.50,-0.57,0.44,-1.05,-6.81,-50.39,-28.11,51544
-2.89,8.98,-0.90,-0.31,0.66,-0.57,-6.61,-50.03,-29.36,51579
-1.41,9.05,-2.82,-0.24,0.07,-0.14,-6.37,-49.23,-31.25,51613
6.38,14.46,0.13,-0.35,-0.06,0.51,-7.53,-48.51,-31.56,51647
16.11,18.75,5.15,-1.99,0.36,1.70,-10.54,-45.88,-34.89,51681
-0.84,11.21,-8.91,-3.31,1.14,4.28,-15.10,-39.90,-38.80,51715
-4.69,-12.76,-39.16,-0.39,-3.89,-0.13,-18.42,-37.31,-37.47,51750
-5.06,-2.21,-25.30,1.68,-9.93,-0.33,-22.99,-37.07,-30.94,51784
-11.42,-27.17,-0.60,1.84,-9.29,1.66,-27.57,-36.61,-22.23,51818
9.47,39.16,34.85,2.56,-11.06,2.28,-30.80,-36.58,-6.66,51852
25.84,3.57,-5.81,-2.90,-0.55,-4.31,-30.14,-40.28,-6.64,51886
18.85,5.17,-9.21,0.78,-1.91,-1.14,-25.75,-43.96,-3.83,51920
-5.14,11.97,-5.58,0.35,-2.03,0.30,-24.01,-44.30,-1.52,51955
3.96,18.50,-10.13,-0.79,-1.18,0.85,-22.36,-44.93,-0.79,51989
28.21,35.21,-17.31,1.14,-1.31,1.51,-21.70,-43.04,-1.15,52023
16.08,25.43,-4.94,-1.15,-0.52,-6.46,-16.12,-42.71,-3.48,52057
26.35,-28.88,24.81,0.34,2.33,-6.60,-10.06,-42.74,-6.40,52091
30.83,-18.67,11.76,-1.13,8.75,-0.20,-14.56,-41.26,-11.25,52125
1.68,25.78,-10.06,-0.33,13.14,1.36,-22.08,-40.72,-20.74,52160
-39.20,34.18,-36.80,3.60,6.33,-4.39,-20.45,-40.87,-34.60,52194
-2.32,0.45,-7.30,-0.97,1.86,-0.98,-21.72,-39.10,-38.66,52228
11.56,11.10,-36.64,2.72,0.31,1.54,-25.84,-35.44,-40.53,52262
-2.91,6.22,11.14,-0.19,-3.19,-0.56,-26.15,-32.17,-41.35,52296
-8.38,8.75,5.74,-1.37,-0.05,-0.59,-27.17,-28.16,-43.01,52331
-4.27,9.79,-2.81,-1.03,0.34,0.22,-27.20,-23.40,-44.69,52365
1.72,15.89,-0.18,-1.79,0.44,0.90,-27.17,-18.40,-46.71,52399
15.38,19.66,5.77,-2.75,0.25,2.71,-25.96,-10.49,-47.73,52433
6.33,16.33,6.03,-2.42,0.42,6.31,-22.00,1.30,-46.54,52467
-28.44,-4.33,-39.16,-3.31,-7.61,1.11,-22.77,6.72,-40.09,52501
-16.36,-5.09,-18.47,1.36,-8.67,0.09,-27.90,8.52,-31.39,52536
-9.50,-8.41,-8.02,2.66,-6.68,-0.21,-30.90,10.10,-25.27,52570
10.17,1.07,-10.82,2.61,-14.03,2.62,-32.74,12.16,-13.78,52604
2.20,6.47,-38.29,2.28,1.64,2.66,-32.29,15.46,-11.46,52638
5.04,-14.06,8.55,-2.91,-0.24,-7.34,-36.14,8.58,-9.54,52672
6.48,36.83,-39.16,3.99,1.18,2.36,-37.65,6.84,-11.14,52707
-5.50,7.86,-10.30,1.97,-0.28,0.37,-37.87,6.27,-9.03,52741
-15.29,5.98,-11.53,-0.73,-0.44,0.18,-36.95,5.90,-7.44,52775
-11.61,19.39,-0.38,-1.33,0.53,-0.55,-36.36,7.07,-6.45,52809
14.88,38.20,-10.13,-0.29,0.93,-2.28,-35.62,5.64,-8.68,52843
13.54,7.76,-1.81,-2.06,-0.55,-6.74,-36.33,-1.34,-10.93,52877
17.57,2.72,18.37,1.78,8.91,-0.98,-37.43,-5.14,-20.99,52912
14.66,1.94,5.71,-0.60,10.30,0.76,-36.32,-1.81,-33.89,52946
-3.59,17.61,-16.89,-1.55,9.66,-0.27,-31.13,3.65,-46.83,52980
-3.98,11.06,0.22,-0.52,0.93,0.10,-29.30,7.70,-50.89,53014
4.71,1.98,-4.77,-0.88,-0.13,1.66,-28.57,12.54,-52.27,53048
-31.22,19.17,6.36,-2.82,-1.27,-2.41,-27.10,18.63,-53.36,53083
8.99,-15.73,-2.57,-1.55,-3.61,-2.09,-30.66,21.54,-51.24,53117
-21.66,8.35,-4.23,-0.74,0.72,-0.64,-27.46,25.14,-53.39,53151
-0.14,0.77,-4.81,-2.13,-0.49,-1.52,-27.30,28.47,-50.72,53185
-2.57,11.26,-4.55,-0.66,0.33,-0.08,-26.24,30.81,-51.34,53219
-2.36,7.93,0.93,-1.35,1.55,-1.48,-25.52,31.88,-50.56,53253
6.90,10.55,-12.15,-0.65,1.12,-0.17,-23.02,34.36,-50.79,53288
3.96,15.69,-0.41,-0.58,0.92,0.26,-20.75,36.48,-50.09,53322
8.50,17.27,4.63,-2.21,1.72,1.39,-15.77,41.52,-46.77,53356
16.88,13.15,1.37,-2.60,0.62,5.21,-7.83,45.50,-42.34,53390
-10.58,-0.77,-26.94,-3.94,-2.19,0.73,0.19,46.14,-37.09,53424
1.07,-1.24,-14.36,0.76,-8.57,1.38,-1.90,47.16,-37.34,53458
-9.51,-3.45,-13.23,2.86,-6.04,-0.05,-5.23,46.95,-43.42,53493
-34.12,35.11,39.20,7.09,-8.79,-0.47,-12.60,46.24,-50.67,53527
7.07,39.16,24.02,2.12,1.50,-1.60,-21.18,47.35,-53.32,53561
7.86,9.64,-5.98,0.90,-2.94,-3.30,-27.68,45.89,-53.24,53595
16.48,22.42,-9.66,2.01,-1.49,0.11,-32.21,43.72,-54.82,53629
-8.71,23.77,5.65,-2.33,1.42,1.06,-31.19,44.40,-54.05,53664
-14.56,14.14,-3.65,-2.95,2.22,2.58,-25.53,48.29,-49.81,53698
7.53,16.76,-17.54,-0.74,0.71,-4.62,-29.13,43.67,-50.00,53732
1.80,9.60,-35.36,-0.65,0.25,-8.33,-38.69,32.75,-50.39,53766
14.27,-6.95,5.58,-0.06,3.51,-6.57,-41.52,18.58,-56.50,53800
3.50,-29.89,16.15,-0.26,8.41,-1.30,-32.90,15.95,-66.25,53834
16.16,-13.13,19.01,-2.23,5.95,4.29,-20.74,23.44,-72.39,53869
-39.20,23.72,-39.16,2.04,4.45,5.23,-1.26,26.57,-79.07,53903
5.28,39.16,-3.07,-1.51,2.91,1.24,9.18,38.67,-73.85,53937
-2.27,33.92,-26.24,2.53,-1.63,-2.24,4.05,40.62,-72.51,53971
8.69,18.28,-19.51,0.12,1.10,0.38,7.15,41.13,-72.30,54005
-15.43,12.03,3.67,-1.60,0.79,-0.73,10.96,42.75,-70.29,54040
-10.39,6.58,-10.40,-1.47,1.20,-0.98,12.00,46.78,-64.97,54074
-5.26,7.22,-4.47,-0.68,-0.21,-0.82,11.28,48.68,-63.72,54108
-0.73,9.63,-7.00,0.14,-0.60,-0.45,10.45,49.27,-62.85,54142
8.73,13.50,-3.63,-0.63,-0.46,-0.20,9.32,49.62,-62.95,54176
18.16,15.53,0.34,-0.89,-0.53,0.94,10.45,51.11,-61.11,54210
10.66,21.17,-6.25,-1.09,-2.58,3.63,15.39,50.10,-58.51,54245
-1.88,2.22,-21.93,-2.94,-8.74,4.51,16.78,48.23,-58.39,54279
11.67,-13.84,-13.98,2.11,-13.54,3.70,5.33,45.85,-64.81,54313
-10.42,-4.55,1.75,2.63,-7.96,3.04,-8.90,39.70,-72.29,54347
-39.20,12.23,-14.64,2.05,-7.08,0.05,-21.02,36.73,-74.71,54381
-16.56,39.16,25.51,-0.63,4.24,-3.23,-27.17,34.79,-77.21,54416
-28.50,-18.98,20.47,-2.55,-1.75,-6.28,-33.81,30.78,-77.11,54450
5.92,14.75,-13.65,1.17,-0.26,-1.21,-38.03,25.52,-78.03,54484
-1.70,15.02,-3.38,0.55,-1.83,-0.13,-42.06,22.13,-77.10,54518
-6.72,13.57,-2.66,-0.38,-1.15,0.29,-43.91,21.22,-76.02,54552
9.21,26.68,-3.22,-0.36,1.28,-0.30,-43.13,20.36,-75.37,54586
9.29,26.38,-8.35,-1.88,3.84,-3.55,-37.27,17.38,-78.59,54621
16.86,-12.41,-16.44,-3.61,3.89,-5.73,-32.68,13.01,-81.47,54655
20.07,-14.96,12.28,-0.39,11.11,-1.65,-4.17,5.47,-89.14,54689
14.42,14.42,4.07,-0.11,10.68,2.65,22.65,4.82,-85.91,54723
-16.42,-4.09,-10.80,-2.55,6.63,-0.80,45.88,5.51,-74.52,54757
-16.74,8.84,-2.39,-8.87,-2.27,-4.59,47.52,8.40,-76.25,54791
17.73,23.15,-26.98,4.36,-0.85,1.40,50.15,1.74,-77.45,54826
1.03,12.79,-5.65,0.29,-1.04,-2.04,47.37,7.26,-78.87,54860
2.59,15.72,-2.41,0.02,-0.25,0.43,48.51,6.05,-77.99,54894
-8.23,12.71,1.16,-1.28,0.33,1.82,51.13,4.17,-76.19,54928
-14.22,5.28,-7.47,-1.65,-1.92,2.65,50.31,1.26,-78.73,54962
-0.84,7.19,-4.99,-1.37,-5.43,3.25,40.59,-2.03,-86.10,54997
0.40,11.19,-5.23,0.02,-0.56,-2.19,36.10,-0.85,-86.96,55031
5.16,-6.85,-1.65,-1.84,0.70,-2.89,37.11,6.50,-85.46,55065
0.62,12.81,-0.17,-0.50,2.04,-1.96,40.00,8.08,-83.15,55099
-2.09,8.76,-3.88,-1.90,1.07,-1.06,43.48,13.62,-80.06,55133
2.34,11.59,-3.70,-0.64,0.48,-0.26,43.95,15.64,-79.87,55167
12.19,14.72,-2.61,-0.41,0.68,0.86,45.37,14.98,-77.40,55202
19.31,12.73,-6.10,-1.86,2.09,1.36,50.85,14.48,-73.02,55236
28.89,11.78,-13.49,-1.98,2.52,3.88,56.74,9.38,-67.96,55270
-39.20,4.80,-30.10,-1.45,-4.56,0.31,55.79,10.57,-71.10,55304
-6.49,-8.08,-9.54,2.07,-10.45,2.29,30.87,3.54,-90.47,55338
-17.41,-2.78,2.12,2.90,-5.06,1.12,16.52,-6.91,-95.63,55373
39.16,3.38,7.30,-0.46,-6.91,-0.99,-0.44,-13.12,-98.13,55407
-5.16,12.12,-8.58,-2.05,-0.94,-2.92,5.79,-17.66,-98.63,55441
5.59,21.09,-9.30,1.05,-1.65,-1.32,-1.36,-21.13,-97.16,55475
2.43,18.61,-5.29,-1.61,-0.26,0.61,-3.48,-19.20,-98.17,55509
-19.51,24.74,-1.79,-2.35,1.48,1.78,-0.22,-13.46,-97.98,55543
-0.53,21.49,-18.63,-0.40,-0.53,-5.29,-2.81,-13.18,-95.88,55578
0.67,4.89,-39.16,0.47,-0.95,-9.97,-4.79,-13.20,-94.21,55612
-0.74,-24.93,10.48,-0.59,3.93,-4.74,5.01,-14.75,-93.03,55646
12.75,-15.70,15.10,-0.41,8.95,1.47,24.76,-16.91,-88.23,55680
-2.64,21.94,-2.49,-1.13,11.23,4.26,48.67,-23.17,-75.59,55714
-30.04,38.36,9.43,1.73,0.66,-2.33,60.89,-26.31,-65.52,55749
5.80,39.16,-11.02,1.55,0.86,1.32,65.64,-31.80,-62.79,55783
-0.54,7.67,2.69,1.79,-0.92,-2.78,65.35,-29.52,-65.24,55817
0.41,13.43,-12.95,0.26,0.16,-0.81,66.06,-30.31,-65.71,55851
-10.02,11.72,2.99,-1.42,0.75,0.18,66.84,-32.23,-65.32,55885
-2.76,10.34,-2.70,-2.21,0.96,0.47,66.98,-32.42,-64.73,55919
7.16,14.57,-2.70,-1.71,1.58,1.11,68.24,-33.27,-62.80,55954
13.11,8.41,3.33,-2.19,0.02,3.28,65.45,-37.66,-64.63,55988
10.21,19.13,-13.82,-1.36,-2.27,2.66,57.60,-43.20,-71.57,56022
-31.01,0.39,-29.06,-2.79,-6.90,0.02,40.31,-40.97,-84.29,56056
-0.05,-5.80,-14.86,0.74,-11.54,1.48,8.67,-44.55,-92.05,56090
-8.30,-7.75,-1.66,3.41,-6.52,1.24,-17.14,-57.82,-81.95,56125
39.10,5.23,0.23,-0.62,-12.25,2.45,-36.80,-68.25,-65.36,56159
-17.23,39.16,12.14,2.48,3.75,-3.88,-30.94,-78.44,-63.43,56193
12.99,14.04,6.36,-1.34,-1.24,-4.92,-18.65,-81.64,-62.72,56227
6.27,22.38,-25.54,1.75,-0.16,1.07,-11.93,-85.34,-60.01,56261
-11.04,13.99,3.67,0.00,-1.25,-0.28,-9.73,-86.41,-57.44,56295
-6.76,13.94,-2.18,-1.12,-0.11,-0.62,-7.07,-84.33,-58.51,56330
9.66,34.42,-3.56,-0.40,1.53,-1.20,-3.05,-82.05,-60.38,56364
11.06,23.61,-12.54,-1.68,2.73,-4.81,8.97,-74.77,-62.57,56398
14.89,-12.15,-39.13,-2.25,1.17,-3.86,18.42,-66.27,-63.64,56432
23.44,-21.61,8.90,0.09,10.94,-0.20,34.46,-64.70,-53.23,56466
11.46,7.99,4.87,-1.56,8.64,3.01,36.09,-70.61,-42.53,56500
-38.98,14.98,-39.16,1.39,5.85,-0.13,33.25,-76.92,-32.59,56535
1.37,3.39,-5.43,-0.68,-1.96,1.28,29.13,-78.40,-38.60,56569
19.98,36.72,-39.08,4.20,-0.28,4.57,21.31,-82.64,-34.76,56603
7.85,0.78,12.79,-0.80,-2.93,-1.52,23.12,-79.16,-40.79,56637
-8.10,7.74,-21.16,1.26,0.26,-0.09,21.41,-78.90,-40.49,56671
-3.42,5.46,1.51,-1.96,-0.36,-1.31,21.73,-76.18,-44.58,56706
-5.23,11.86,2.65,-0.54,-0.28,-0.08,21.41,-75.07,-46.24,56740
-0.03,9.98,-2.87,-1.25,-0.03,-0.02,20.33,-73.19,-50.53,56774
10.51,14.02,-1.40,-1.68,0.73,1.02,18.50,-70.91,-54.50,56808
8.93,19.56,10.22,-2.33,1.16,2.68,12.54,-66.68,-61.14,56842
6.51,21.64,3.75,-1.25,-0.89,6.07,1.86,-62.01,-67.35,56876
-9.66,-1.55,-35.22,-3.79,-3.99,1.62,-8.05,-52.54,-73.37,56911
-13.01,-9.14,-21.23,-1.49,-10.92,0.41,-28.59,-44.84,-68.01,56945
-6.55,-1.88,-11.96,2.16,-7.87,0.90,-42.74,-44.91,-54.31,56979
-39.20,19.86,-31.69,4.08,-9.72,-0.84,-48.70,-49.39,-30.87,57013
22.96,16.14,13.67,-0.05,-4.28,-1.81,-46.49,-52.13,-21.56,57047
6.73,38.86,13.33,0.43,0.96,-0.57,-39.90,-56.53,-20.43,57082
-3.45,10.88,2.91,0.46,-0.04,-3.61,-33.91,-58.96,-20.07,57116
2.07,7.36,-10.39,0.19,1.18,-2.21,-26.83,-61.66,-20.48,57150
-3.97,7.96,-6.72,0.39,-1.02,-0.73,-23.55,-60.52,-17.70,57184
0.01,10.25,-8.20,0.25,-0.98,-0.12,-21.86,-59.22,-16.31,57218
-4.43,15.32,0.68,-0.34,-0.58,0.87,-22.43,-56.50,-15.97,57252
3.74,26.16,-3.63,-0.00,-0.48,1.04,-23.43,-52.95,-17.61,57287
11.07,27.18,-13.43,-0.23,0.78,-0.84,-22.76,-51.68,-20.43,57321
4.51,7.21,2.04,-1.95,1.56,-5.88,-17.01,-53.07,-25.50,57355
39.16,-14.54,28.04,0.55,8.03,-6.96,-6.83,-53.51,-30.09,57389
31.88,-14.12,2.80,-1.65,9.88,-0.38,-1.40,-52.95,-31.98,57423
-6.33,17.94,-1.74,-2.19,8.35,1.17,1.40,-51.53,-33.97,57458
17.90,13.78,-13.84,-1.59,3.23,-3.36,3.16,-51.07,-36.36,57492
0.70,-3.11,-11.22,-1.39,0.44,-1.02,2.97,-50.70,-38.35,57526
-28.79,13.02,-12.01,-2.58,0.63,-2.78,-1.61,-49.81,-36.79,57560
-11.49,7.83,13.50,-0.56,-2.68,-0.95,-3.03,-48.07,-37.66,57594
-4.19,7.57,-7.94,-0.73,-0.75,-1.04,-2.21,-47.25,-39.67,57628
1.49,7.23,-0.54,-1.05,-0.26,-0.96,-2.72,-46.29,-41.52,57663
-1.30,8.02,-8.82,-1.05,0.10,0.01,-2.91,-44.56,-43.93,57697
-2.23,11.10,-1.94,-0.54,-0.06,0.57,-3.29,-42.68,-46.38,57731
5.63,13.42,-1.18,-0.68,0.59,1.17,-4.30,-40.37,-48.44,57765
7.84,15.83,1.96,-1.84,1.14,2.20,-5.61,-37.40,-50.45,57799
8.25,13.17,4.47,-2.46,0.24,4.89,-7.54,-31.13,-54.27,57833
1.56,7.51,-22.60,-3.16,-2.24,2.71,-10.77,-25.34,-56.59,57868
-29.46,-3.06,-33.73,-0.72,-11.88,-0.02,-22.71,-21.05,-50.85,57902
-1.45,-7.81,-10.12,2.51,-10.11,1.29,-32.18,-19.37,-40.28,57936
-6.82,-2.19,4.90,2.08,-6.05,1.73,-36.06,-17.89,-31.35,57970
39.16,11.97,8.52,1.22,-7.89,0.55,-36.99,-16.50,-19.88,58004
11.29,24.35,19.50,-0.18,0.94,-1.51,-34.80,-18.58,-21.51,58039
-9.91,15.00,-25.85,0.01,-1.36,-2.88,-34.48,-19.25,-20.20,58073
5.65,6.05,-1.45,0.48,0.21,-1.80,-33.79,-21.34,-20.14,58107
-8.48,9.97,-0.63,1.00,-0.87,-0.52,-33.60,-20.64,-18.44,58141
-8.31,10.00,-2.39,-0.01,-0.39,-0.71,-33.57,-20.17,-18.40,58175
-7.94,9.92,-5.01,-0.54,-0.63,-0.07,-33.73,-19.37,-18.59,58209
-6.99,14.61,-3.61,-1.19,-0.14,-0.11,-34.92,-18.82,-18.69,58244
0.92,23.18,-3.40,-0.50,1.08,-0.61,-35.78,-19.26,-20.97,58278
3.75,27.35,-13.19,-0.05,1.78,-4.52,-34.48,-22.80,-23.98,58312
15.60,-11.10,16.80,-2.89,0.00,-4.67,-30.36,-30.14,-27.62,58346
39.16,9.86,38.74,2.63,6.85,-4.36,-23.68,-35.08,-32.99,58380
17.31,0.50,-1.10,-1.42,6.32,0.88,-19.03,-34.62,-39.94,58415
2.66,9.77,8.06,-2.20,4.35,1.59,-16.79,-29.68,-45.21,58449
-4.63,9.22,1.37,-1.68,2.55,2.14,-15.24,-24.60,-48.51,58483
12.92,15.66,-3.28,-3.10,-1.40,0.53,-16.28,-20.42,-49.81,58517
-2.53,-8.33,-39.16,7.90,1.23,6.11,-14.88,-17.23,-50.63,58551
25.24,1.11,2.45,0.60,-3.67,-0.27,-16.56,-15.99,-49.02,58585
-17.13,5.21,-10.88,-0.69,-0.52,-0.47,-16.41,-14.29,-48.01,58620
-3.37,10.16,-4.98,-0.97,-1.03,0.25,-16.25,-13.61,-47.31,58654
3.95,4.82,-14.45,-0.24,-1.03,0.29,-16.38,-12.85,-46.52,58688
0.16,7.21,-3.78,-0.03,-0.67,-0.14,-17.13,-12.42,-46.40,58722
0.87,8.42,-3.42,-0.44,0.10,-0.75,-16.79,-12.04,-46.17,58756
1.97,8.18,-3.99,-0.28,0.26,-0.19,-15.73,-11.88,-46.54,58791
-1.93,8.10,-2.18,-0.11,0.43,-0.09,-15.26,-11.01,-46.86,58825
-2.65,10.38,1.11,-0.04,-0.36,-0.47,-15.49,-11.22,-46.38,58859
-0.31,8.52,-3.75,-0.07,-0.22,-0.57,-15.57,-11.81,-46.04,58893
-0.02,7.35,-4.72,0.16,-0.39,-0.32,-15.33,-11.97,-45.66,58927
-1.61,10.01,-3.67,0.31,-0.37,-0.05,-15.13,-12.34,-45.21,58961
-2.07,8.28,-3.04,0.23,-0.49,-0.07,-15.27,-12.67,-44.08,58996
-2.01,8.57,-4.92,0.22,-0.55,0.09,-15.30,-12.88,-43.72,59030
-1.50,9.09,-4.69,0.14,-0.26,0.00,-15.10,-13.26,-44.14,59064
0.04,9.32,-4.73,0.04,-0.30,0.15,-15.05,-12.93,-43.41,59098
-0.80,9.72,-2.33,-0.16,-0.23,0.29,-15.20,-13.18,-43.51,59132
-1.30,10.14,-1.69,-0.35,-0.07,0.25,-14.97,-12.86,-42.87,59166
0.68,9.78,-1.50,-0.61,0.32,-0.30,-14.62,-13.40,-42.22,59201
7.13,11.28,-2.36,-1.11,1.46,-1.30,-13.34,-14.19,-42.24,59235
9.69,15.17,2.87,-0.59,4.87,-1.71,-9.00,-15.57,-45.15,59269
6.76,17.88,9.60,-0.90,10.12,-4.74,-0.13,-16.95,-47.16,59303
11.48,-3.28,-6.78,-3.08,13.62,-6.53,16.82,-14.50,-44.30,59337
9.35,-2.16,-5.41,-2.46,11.88,-4.01,27.76,-10.83,-35.97,59372
11.06,16.60,-32.42,-0.77,5.70,-0.51,33.95,-9.72,-29.09,59406
-1.30,10.52,-12.70,2.15,-1.22,0.54,34.27,-9.25,-29.71,59440
4.60,7.41,2.51,0.56,-0.10,0.63,33.70,-9.73,-30.90,59474
-4.23,18.24,7.39,-0.47,2.19,0.86,33.97,-9.97,-27.17,59508
-1.92,10.44,0.64,-0.43,1.52,0.64,34.57,-9.25,-24.80,59542
-3.10,4.07,-8.44,0.15,2.01,-0.32,35.40,-8.74,-22.70,59577
-6.04,5.26,-13.29,-0.26,2.86,-1.56,35.97,-6.85,-18.34,59611
-1.47,3.80,-9.66,0.05,1.13,-1.36,36.03,-5.33,-17.64,59645
-1.16,9.21,2.01,0.07,0.82,-0.95,35.55,-4.30,-15.52,59679
4.54,13.11,-1.00,0.01,0.92,-0.73,35.63,-3.22,-14.35,59713
8.55,12.37,-2.89,-0.34,1.59,-1.40,35.34,-1.71,-12.53,59748
0.22,5.66,3.18,-1.52,5.51,-1.94,33.13,0.98,-5.63,59782
-7.44,16.56,-19.85,-1.55,3.19,-0.83,30.17,2.66,0.13,59816
-8.34,8.42,-10.64,1.02,-0.80,-0.09,29.17,2.63,-0.20,59850
5.49,14.79,0.24,0.68,-0.20,0.55,29.85,2.69,-1.71,59884
-3.07,11.84,-3.55,-0.09,0.41,-0.38,28.87,2.85,-0.72,59918
-6.42,6.10,-8.63,-0.84,0.52,-0.83,27.96,3.51,-0.06,59953
-8.02,7.54,-1.81,0.45,-0.54,-0.43,28.47,3.20,-0.60,59987
-8.26,7.06,-4.83,0.59,-0.58,-0.76,28.73,3.74,-1.37,60021
-2.38,8.73,-4.34,0.82,-1.32,-0.46,30.66,3.22,-1.91,60055
-2.51,14.35,-4.68,-0.32,-0.85,0.34,32.89,2.81,-2.48,60089
7.23,15.54,-4.41,-1.69,-1.13,1.40,34.39,0.61,-3.67,60124
28.02,24.28,-19.41,0.49,-5.23,3.20,37.46,-3.17,-7.94,60158
5.41,8.30,-6.65,-0.45,-8.53,0.21,38.67,-4.68,-17.38,60192
0.24,-7.42,-18.89,1.90,-9.36,0.54,36.09,-5.93,-31.47,60226
-0.08,-5.20,7.18,3.55,1.18,1.83,34.36,-9.43,-31.89,60260
-15.46,7.70,-27.50,3.29,3.75,0.95,33.25,-14.02,-26.86,60294
36.04,-3.05,32.19,-0.76,-4.18,-1.54,31.70,-14.28,-29.89,60329
-1.42,39.16,-13.23,-0.45,1.35,-0.62,32.70,-14.43,-26.89,60363
-9.38,-0.67,-5.51,-0.08,-2.41,-2.96,33.91,-13.30,-27.87,60397
-7.97,8.74,-18.27,0.40,-1.46,-0.12,34.30,-15.78,-28.71,60431
24.36,22.07,-16.52,-0.50,-2.65,0.12,35.37,-16.05,-30.47,60465
20.88,39.16,-10.68,-0.25,-0.32,-1.53,35.87,-12.77,-30.40,60500
0.59,0.16,-22.04,-3.23,1.62,-4.93,34.89,-2.24,-28.16,60534
16.27,4.52,10.46,1.59,12.17,-7.00,33.08,6.42,-13.24,60568
-3.02,-36.47,9.73,-4.27,9.50,2.05,28.57,5.00,-4.05,60602
-23.76,24.22,18.43,-5.99,6.85,2.09,23.53,-0.89,3.83,60636
-15.60,-39.20,-39.16,13.48,3.46,-0.15,20.07,5.50,4.50,60670
9.81,14.65,3.74,3.44,-2.33,0.39,24.14,3.32,1.52,60705
14.42,6.87,6.73,-4.70,-1.92,0.88,24.95,4.43,0.53,60739
-4.93,14.56,-0.52,-1.26,0.13,-0.73,25.75,4.17,0.60,60773
-0.51,14.96,-3.64,-1.76,1.14,-0.26,25.77,3.51,3.05,60807
0.11,9.73,-2.82,-3.08,3.45,-1.32,24.03,2.13,8.17,60841
-6.54,0.63,0.72,-3.49,6.43,-3.88,18.62,2.08,12.99,60875
-3.77,-8.05,-4.11,-1.73,4.49,-3.07,11.71,1.70,16.00,60910
-39.20,15.73,-37.68,5.21,1.17,-1.98,9.97,4.49,15.24,60944
0.19,30.17,-1.61,3.04,-0.70,-0.24,12.74,2.59,15.62,60978
10.41,21.45,1.26,-2.01,0.20,0.93,13.23,0.72,16.52,61012
4.23,25.43,13.75,-4.06,0.87,3.46,11.79,-6.61,18.93,61046
3.49,14.86,-14.42,1.52,-2.51,6.19,12.50,-11.21,18.56,61081
-33.17,7.77,-32.75,-14.43,-17.46,-0.84,23.43,-21.65,10.00,61115
-21.10,-13.45,-18.54,2.46,-8.13,1.69,27.92,-24.60,4.68,61149
-20.45,4.44,-10.02,3.67,-9.39,-0.12,30.90,-24.55,-0.35,61183
5.08,23.59,36.98,2.50,-7.20,-2.32,35.37,-23.46,-7.10,61217
-8.03,39.16,39.20,0.46,3.93,-3.27,36.13,-23.49,-4.06,61251
34.61,-28.83,24.75,-6.67,-4.15,-4.85,40.98,-22.39,-5.83,61286
8.87,28.86,-27.23,3.08,0.11,0.11,39.68,-22.48,-3.92,61320
-8.13,11.70,-4.30,-0.60,-0.26,-0.10,41.13,-24.12,-4.75,61354
-5.47,15.54,-0.42,-0.79,0.72,-0.18,43.35,-25.05,-2.38,61388
9.64,25.16,-9.63,-0.44,3.00,-2.51,44.49,-22.08,2.44,61422
12.24,25.47,-7.70,0.00,1.84,-6.71,45.09,-12.04,7.82,61457
6.59,-21.78,-21.08,0.35,-1.21,-5.26,43.88,-1.24,7.56,61491
24.12,-9.58,19.68,-1.37,5.88,-2.13,39.59,3.05,13.48,61525
13.60,1.33,8.81,-1.16,9.03,2.14,30.09,-4.09,26.63,61559
-3.46,19.61,-8.50,-0.55,9.08,3.69,16.33,-11.66,33.19,61593
-5.67,-26.43,3.32,-10.79,1.11,-4.38,10.70,-20.11,33.25,61627
3.67,11.77,-39.16,7.95,-0.38,1.22,8.94,-17.39,35.47,61662
-6.56,12.72,17.70,-1.62,-1.04,-3.31,10.52,-21.22,35.14,61696
8.40,12.06,-17.62,2.01,-0.32,-1.14,10.92,-20.55,36.31,61730
-5.45,14.57,4.42,-1.16,1.25,-0.27,9.47,-21.22,36.29,61764
-6.45,12.79,-2.84,-1.47,1.67,0.25,4.90,-23.97,35.44,61798
-6.10,7.76,-6.55,-2.07,0.73,1.19,0.56,-28.59,32.65,61833
-8.30,7.26,-7.21,-1.37,-0.17,1.23,-1.59,-30.65,31.83,61867
-4.88,6.32,-8.94,-0.08,-0.22,0.27,-1.87,-31.20,30.14,61901
-1.51,6.93,-7.33,0.51,-0.21,-0.99,-1.84,-30.47,30.52,61935
2.91,9.34,-3.98,0.38,-0.45,-1.16,-0.42,-30.25,30.85,61969
2.95,10.19,-1.79,0.12,-0.48,-1.01,1.04,-29.89,31.45,62003
-0.20,7.56,-2.57,-0.19,0.08,-1.27,2.21,-30.30,30.50,62038
1.37,12.18,-1.99,0.11,0.11,-0.04,2.25,-31.13,31.19,62072
-0.40,10.67,-1.30,-0.24,0.13,-0.39,1.33,-31.35,31.00,62106
-2.33,9.47,-2.62,-0.56,0.67,-0.77,0.48,-32.13,30.23,62140
-3.12,6.08,-7.63,-0.67,0.32,-0.82,-0.38,-33.15,29.54,62174
-0.53,7.68,-3.85,0.07,-0.29,-0.65,0.77,-33.63,28.59,62208
3.32,13.25,-0.19,-0.00,-0.60,-0.23,1.51,-34.04,28.33,62243
4.78,14.98,1.72,-0.70,-1.49,1.03,1.75,-35.18,28.14,62277
14.25,17.49,1.63,-0.88,-0.69,2.51,1.27,-35.27,26.81,62311
12.01,6.53,-3.79,-2.71,-1.38,4.59,-2.72,-37.39,24.31,62345
5.14,11.20,-28.19,-2.06,-2.83,4.54,-5.50,-38.56,23.34,62379
-12.11,2.13,-24.18,-1.01,-7.74,-0.01,0.18,-40.72,24.07,62414
-9.72,-1.98,-12.35,1.88,-8.87,-0.64,13.90,-39.89,26.15,62448
-17.24,13.28,11.68,2.96,-10.86,-0.22,27.14,-37.02,25.40,62482
9.16,23.52,17.94,2.02,-1.66,-1.48,38.95,-37.37,21.08,62516
7.06,17.13,19.58,-0.11,3.28,-2.51,39.65,-36.17,27.46,62550
28.10,-20.79,-38.45,-0.65,2.33,1.44,34.83,-38.47,31.50,62584
22.61,5.43,7.76,-0.25,-2.38,-1.15,38.35,-35.78,31.86,62619
4.35,7.92,-7.86,-0.03,-0.39,0.01,39.45,-34.98,33.31,62653
-0.45,15.29,5.36,-0.54,0.08,0.31,39.24,-35.79,32.77,62687
-0.07,11.85,-0.91,-1.73,0.38,0.76,37.52,-39.13,31.54,62721
-2.84,9.46,-2.29,-1.22,0.88,2.16,34.24,-43.17,30.77,62755
-3.82,7.99,-3.57,-0.76,1.31,1.54,30.40,-46.17,30.04,62790
-8.13,5.87,-9.40,-0.08,1.65,-0.02,26.67,-47.09,32.15,62824
-1.95,5.31,-12.64,0.24,-0.36,-1.78,28.43,-46.38,32.18,62858
3.03,6.62,-6.18,0.47,-0.78,-2.89,33.97,-42.63,33.63,62892
-2.28,4.53,-4.54,0.28,-1.18,-1.89,40.22,-39.59,33.19,62926
-2.06,8.60,-1.60,0.25,-2.41,-1.39,46.16,-37.96,31.82,62960
-0.28,8.71,-5.65,0.73,-2.32,-1.15,53.86,-34.36,29.26,62995
-5.28,13.42,-6.79,1.25,-2.27,0.12,60.04,-32.23,26.79,63029
-6.89,15.23,-2.66,-0.57,-0.94,1.23,62.79,-32.96,25.36,63063
-8.60,17.67,-0.16,-1.13,0.15,1.66,63.40,-35.33,23.97,63097
14.70,25.96,-16.51,-1.07,0.81,-1.92,62.73,-31.48,24.06,63131
5.23,-2.25,-8.05,-1.94,1.00,-6.61,60.38,-14.67,27.30,63166
39.16,-7.40,15.72,1.08,3.32,-5.55,54.43,-1.29,31.96,63200
25.08,-9.83,9.84,-0.75,9.62,-0.36,36.48,-0.67,47.00,63234
7.44,13.05,1.75,-1.44,10.60,1.61,6.91,-7.83,58.61,63268
-8.32,9.16,-7.95,-2.42,5.94,1.56,-15.52,-16.95,57.95,63302
-16.28,13.88,-16.14,1.27,3.00,-1.06,-22.60,-27.42,55.76,63336
-1.94,12.17,-19.17,0.27,-1.33,1.20,-26.38,-29.20,58.75,63371
-26.71,15.32,-7.09,0.27,-0.43,-2.29,-30.02,-26.83,59.16,63405
9.79,9.39,-3.06,-0.82,-1.13,-1.00,-25.69,-29.44,59.62,63439
-2.77,14.18,-4.63,-0.71,0.92,0.89,-31.57,-28.34,57.21,63473
-7.48,11.50,3.04,-0.89,1.12,0.83,-36.90,-27.14,53.32,63507
0.16,5.47,-0.87,-1.20,2.02,-0.36,-43.04,-28.30,48.32,63541
-3.43,7.53,-6.77,-1.16,2.35,-1.10,-49.81,-30.40,41.99,63576
-0.22,7.48,-7.71,-0.53,1.34,-0.85,-54.19,-32.26,36.69,63610
-1.97,8.17,-5.31,-0.40,0.81,-0.65,-56.90,-33.24,34.35,63644
0.28,9.37,-3.99,-0.06,0.59,-1.06,-58.40,-33.43,32.99,63678
3.89,10.51,-4.02,-0.18,0.48,-0.43,-60.04,-33.84,29.99,63712
0.98,8.69,-4.88,-0.12,0.68,-0.13,-62.23,-32.71,28.19,63747
-5.03,7.60,-4.95,-0.27,0.39,0.05,-64.09,-30.15,25.69,63781
-2.48,12.54,-2.97,-0.28,-0.15,0.50,-66.02,-28.27,24.17,63815
3.86,12.81,-2.08,-1.24,-1.12,0.66,-65.48,-26.67,25.27,63849
4.75,12.71,-0.43,-2.51,-2.13,2.97,-64.29,-23.31,28.52,63883
2.07,4.18,-30.37,-1.30,-2.74,3.55,-60.93,-16.31,35.25,63917
3.03,9.02,-30.53,0.06,-13.04,1.25,-40.08,-12.76,53.10,63952
4.96,9.68,-9.78,2.43,-15.10,-0.49,4.90,-6.72,63.20,63986
-5.33,2.86,6.07,2.52,-8.64,-0.94,31.57,1.17,55.82,64020
8.06,14.26,12.60,1.08,-2.32,-0.70,44.24,6.91,50.98,64054
-4.04,25.70,16.88,-0.42,2.74,-1.25,40.35,8.30,54.02,64088
-0.86,22.87,-22.56,-0.27,0.44,-1.53,38.23,10.44,56.28,64123
1.03,6.15,-8.51,0.52,-0.81,-1.55,41.08,15.49,55.45,64157
-9.42,13.07,-8.96,0.51,-1.06,0.38,43.93,17.93,52.12,64191
-3.19,17.18,-3.94,-0.57,-0.97,0.02,47.41,19.96,48.39,64225
18.20,35.90,-21.80,0.34,1.19,-2.28,45.81,25.55,46.02,64259
12.01,-0.61,10.31,-0.85,1.64,-7.94,32.08,33.54,46.59,64293
39.16,-30.25,29.47,1.52,5.57,-8.25,13.33,39.48,45.73,64328
17.46,-13.70,6.84,-2.12,9.63,0.20,-11.24,37.08,47.38,64362
2.06,4.73,4.71,-2.91,10.13,1.92,-31.70,34.43,43.04,64396
24.82,18.76,-2.54,-2.23,5.04,2.16,-49.46,31.01,34.87,64430
22.04,-8.57,-22.77,0.03,-1.70,-0.45,-54.19,36.20,28.75,64464
-7.83,5.80,1.09,-0.47,-3.73,0.28,-47.35,34.27,36.55,64499
0.31,20.60,0.11,0.39,-0.96,1.52,-42.58,38.79,35.84,64533
-14.52,14.20,3.62,-1.78,0.70,0.40,-41.79,38.78,35.98,64567
-4.52,6.29,-3.86,-0.73,0.55,-0.60,-43.44,36.19,36.19,64601
-3.70,5.74,-8.02,-0.76,1.59,-1.38,-47.27,33.62,33.35,64635
-5.02,8.03,-7.98,-1.12,0.75,-1.68,-51.43,29.87,33.16,64669
-4.09,11.20,0.95,-1.00,2.03,-2.73,-56.45,24.41,30.25,64704
6.09,7.74,-11.91,-0.54,0.39,-0.17,-59.92,21.08,28.28,64738
-1.36,7.62,-1.69,-0.24,0.07,0.13,-59.85,22.26,28.14,64772
1.13,7.85,-11.54,-0.22,-0.12,-0.13,-60.77,21.66,27.77,64806
5.35,12.05,-4.22,-0.75,-1.29,0.41,-59.25,22.98,29.96,64840
7.40,16.50,1.86,-1.71,-1.22,1.37,-55.58,23.81,34.33,64875
-3.19,20.40,13.99,-2.77,-1.55,3.28,-50.53,25.37,38.42,64909
5.43,3.72,-24.38,-1.24,-6.09,5.23,-32.18,29.00,49.11,64943
-16.83,-4.25,-30.24,-1.51,-13.30,2.65,-1.40,27.67,54.66,64977
-2.48,5.71,3.20,2.57,-7.91,-0.20,24.89,31.67,47.21,65011
-18.63,13.91,13.30,2.05,-7.04,-1.32,37.47,40.12,33.50,65045
-6.72,18.40,19.73,1.01,0.84,-3.22,38.75,46.26,27.49,65080
1.52,-2.81,-7.67,-0.72,1.33,-3.39,31.63,50.42,28.59,65114
6.32,2.57,4.76,0.31,-3.22,-1.02,30.17,54.38,22.67,65148
-1.40,10.93,-9.28,1.52,-1.81,-0.67,30.58,57.70,15.76,65182
-7.07,13.55,-4.66,-0.12,-0.88,0.29,31.91,59.00,11.85,65216
-0.06,15.65,-5.05,-1.68,-0.70,0.95,34.23,57.72,11.82,65250
17.05,31.27,-9.10,0.79,-0.27,0.93,36.36,56.31,10.46,65285
13.96,22.28,-13.12,-1.06,1.89,-4.45,25.55,59.54,12.23,65319
-5.78,-0.05,-33.24,-1.52,0.80,-6.28,9.05,60.82,14.51,65353
2.05,-10.37,10.45,-0.34,8.01,-4.19,-10.74,61.39,11.27,65387
22.01,-6.49,7.58,-1.21,8.71,-0.26,-19.41,60.29,6.91,65421
11.02,11.47,0.72,-2.03,10.46,1.49,-25.27,61.52,2.48,65456
-31.67,23.29,3.25,1.10,1.54,-3.83,-29.19,61.91,0.12,65490
-9.72,-4.07,-6.18,-2.26,3.76,-0.62,-31.28,61.96,-0.23,65524
-0.73,13.29,-7.04,-4.38,-1.16,-1.70,-27.46,64.72,-3.80,65558
-1.85,8.72,2.57,-0.57,-0.54,-0.80,-27.84,63.18,-1.91,65592
-8.74,13.20,2.87,-0.49,0.19,0.16,-25.88,63.42,-1.24,65626
-12.27,8.39,-2.71,-2.30,2.15,-0.81,-25.53,61.39,3.45,65661
2.92,6.30,-12.39,-0.99,1.61,-0.52,-27.00,60.41,4.03,65695
-1.56,8.99,-3.18,-1.13,1.97,-0.86,-28.12,58.86,4.79,65729
-4.89,8.68,-11.20,-0.67,3.40,-1.61,-32.96,56.14,3.19,65763
-4.51,6.85,-7.71,0.56,1.52,-0.45,-34.38,55.17,1.75,65797
-8.23,8.89,-0.31,0.74,-0.39,-0.92,-35.87,55.13,0.42,65832
-5.07,14.27,-0.01,0.77,-1.62,-0.26,-34.76,55.77,0.19,65866
-1.25,16.11,-3.25,-1.34,-0.20,0.23,-34.00,55.39,3.61,65900
6.51,13.98,-9.13,-3.05,-1.12,2.04,-30.12,54.37,12.01,65934
19.59,10.13,-26.26,-1.01,-2.86,3.50,-19.57,54.36,17.38,65968
5.25,5.33,-19.44,-0.86,-12.39,2.50,-1.39,53.14,20.96,66002
11.92,-11.41,-15.07,2.08,-14.62,3.12,25.64,52.70,7.61,66037
-19.22,4.86,3.30,3.52,-8.47,1.50,34.51,53.54,-9.78,66071
39.16,1.20,22.24,0.17,-7.33,0.96,35.25,54.12,-24.12,66105
-0.77,39.16,-0.46,0.38,2.30,0.37,32.07,58.27,-23.50,66139
-8.66,2.34,7.62,0.04,-1.10,-3.71,25.75,61.41,-24.44,66173
8.32,20.93,-24.19,2.21,-0.82,0.42,21.89,62.70,-30.06,66208
-6.80,14.99,-0.49,0.74,-1.50,0.25,20.10,61.68,-34.73,66242
-6.03,18.30,-2.21,-0.92,-0.50,0.56,19.09,62.20,-33.54,66276
6.92,28.04,-7.91,-0.36,1.95,-0.25,18.28,62.17,-30.63,66310
-2.12,24.46,-12.00,-1.06,4.57,-6.15,8.56,62.89,-27.68,66344
14.59,-5.39,-34.91,-2.92,2.67,-6.97,-11.97,59.65,-24.32,66378
28.32,-8.89,11.13,-0.47,5.32,-2.41,-20.05,55.58,-30.56,66413
14.48,5.33,21.30,-0.13,5.32,3.11,-13.50,56.12,-33.62,66447
-9.09,31.59,-0.38,0.72,10.12,3.47,4.95,58.18,-37.18,66481
16.39,-2.13,-26.13,-7.14,1.67,-3.05,8.89,61.25,-32.15,66515
15.38,18.50,-39.16,2.10,2.03,2.18,12.77,61.36,-31.16,66549
13.58,8.22,9.20,-1.61,-3.02,-1.34,7.12,62.70,-30.18,66583
-6.50,10.69,0.60,0.31,-0.86,-0.91,6.21,62.35,-30.28,66618
2.31,15.35,-0.67,-1.13,-0.28,-0.92,4.76,62.22,-27.05,66652
5.41,12.05,-0.67,-1.04,0.24,0.40,5.55,61.55,-24.17,66686
4.33,12.69,0.71,-1.09,0.67,1.02,9.19,60.33,-19.79,66720
11.04,17.47,4.53,-2.22,0.81,2.87,16.97,57.15,-12.92,66754
5.28,10.86,14.57,-2.92,0.25,7.08,27.68,49.72,-5.23,66789
3.88,17.92,-28.38,-2.86,-1.32,4.25,39.35,35.66,0.41,66823
-8.97,4.49,-16.71,-3.23,-5.94,-2.04,42.21,30.39,-5.31,66857
-12.58,-3.34,-15.94,1.93,-3.50,-0.97,42.52,29.93,-13.83,66891
-15.36,3.41,-5.69,2.57,-3.67,-1.00,41.08,30.15,-25.43,66925
39.16,13.48,1.77,1.67,-8.63,-0.41,35.43,32.01,-39.86,66959
25.17,39.16,-5.27,0.30,4.07,-3.94,33.86,34.00,-39.73,66994
-18.83,-9.57,20.97,-3.82,-0.92,-3.11,30.31,37.62,-40.88,67028
8.40,11.49,-11.55,1.94,-0.20,-1.35,27.30,37.83,-43.03,67062
1.60,17.84,7.96,0.44,-1.20,-0.90,24.99,37.69,-45.92,67096
4.19,7.83,-1.19,-1.94,0.01,-0.56,23.98,39.13,-42.97,67130
-5.60,11.64,-1.16,-0.45,0.14,0.27,24.44,39.27,-41.92,67165
-10.27,3.40,-9.52,-1.57,0.80,0.12,25.24,39.62,-38.25,67199
-9.81,4.61,-7.50,-0.37,0.09,-0.08,25.74,39.81,-37.83,67233
-10.57,4.44,-4.85,0.97,-1.22,-0.41,24.32,39.43,-39.97,67267
-7.90,11.44,-4.56,0.60,-1.80,-0.51,22.14,39.49,-43.48,67301
-2.63,12.45,-7.56,-1.73,-0.72,-0.07,19.63,41.17,-41.80,67335
-1.67,19.88,-4.82,-1.74,-0.27,0.75,18.27,42.33,-38.66,67370
13.99,31.13,-26.17,-0.30,0.63,-1.52,17.82,39.77,-37.65,67404
7.86,20.21,-20.10,-0.70,-2.65,-6.27,8.13,38.99,-34.87,67438
39.16,-13.32,15.83,0.66,1.85,-7.18,-2.09,34.87,-34.55,67472
28.25,-16.02,11.61,0.24,3.04,0.51,0.72,31.98,-36.06,67506
20.18,10.55,12.20,-0.32,10.06,3.59,13.40,28.94,-32.68,67541
-12.96,30.79,-12.89,-0.60,11.65,2.26,25.72,25.78,-22.52,67575
-3.03,-15.21,19.37,-3.29,-0.37,-5.07,28.60,25.45,-15.14,67609
-7.82,32.42,-12.84,-2.81,3.15,-0.82,29.41,23.17,-10.13,67643
-17.47,17.36,-17.36,-1.67,-0.60,-1.81,31.79,19.99,-7.64,67677
14.60,8.60,-7.79,-0.04,-0.41,-0.90,31.76,16.66,-8.02,67711
-5.63,15.74,1.70,-0.76,0.08,-0.27,31.50,12.92,-5.96,67746
-3.26,8.53,0.17,-2.10,1.41,-0.46,30.74,9.84,-1.26,67780
-5.53,8.90,-4.15,-1.08,1.73,-0.20,28.91,5.99,2.35,67814
-1.52,7.13,-5.90,-1.12,2.17,-0.46,27.57,3.13,4.81,67848
-1.38,6.64,-9.62,-0.83,3.07,-1.26,23.81,1.02,8.99,67882
0.20,5.95,-9.34,-0.31,2.21,-1.50,20.34,-0.63,10.74,67916
-0.65,7.80,-9.37,0.50,0.65,-0.72,18.97,-1.37,12.10,67951
-1.99,10.79,-2.54,1.59,-1.26,-0.37,19.61,-1.91,10.89,67985
-3.79,15.67,0.21,0.18,-0.95,-0.05,20.17,-3.05,10.96,68019
-6.13,15.74,0.21,-3.54,0.19,0.97,20.01,-6.09,11.22,68053
8.25,7.60,-8.91,-2.37,-3.17,4.16,20.58,-13.26,8.92,68087
7.91,9.61,-23.85,-1.60,-7.78,3.40,23.15,-16.94,3.23,68122
-11.84,-0.53,-14.05,0.14,-16.44,1.94,30.14,-20.33,-10.49,68156
-13.04,1.22,2.74,2.98,-12.22,-1.21,32.17,-21.44,-23.82,68190
4.74,0.37,10.71,2.28,-10.25,0.37,31.32,-22.99,-33.08,68224
11.75,37.56,6.96,0.03,0.83,0.32,32.53,-25.53,-35.81,68258
-2.43,-3.59,-4.77,-1.09,-3.35,-1.38,33.92,-24.35,-36.88,68292
3.80,11.18,-14.33,-0.22,-1.15,-0.59,33.78,-23.91,-38.76,68327
1.29,24.44,3.01,-1.69,-0.31,-0.64,33.62,-21.92,-39.17,68361
14.81,38.34,-11.37,-0.74,1.32,-2.97,34.51,-18.12,-36.25,68395
3.57,13.91,1.94,-2.01,1.83,-6.20,35.63,-9.32,-30.08,68429
39.16,1.41,24.87,2.56,8.41,-8.00,35.93,-3.96,-21.03,68463
23.67,-19.45,-1.42,-1.99,8.42,-0.55,35.94,-5.86,-6.17,68498
8.49,5.34,6.38,-2.19,10.52,2.00,31.42,-13.99,10.68,68532
-8.26,-8.09,13.41,-4.26,3.59,-0.16,26.34,-20.27,16.44,68566
1.31,39.16,-21.35,0.50,4.47,-0.37,19.38,-24.67,21.40,68600
25.15,1.58,4.45,0.05,-4.34,-0.81,22.52,-26.13,20.05,68634
-1.40,8.76,-0.99,0.10,-0.33,-0.95,23.03,-27.08,19.83,68668
1.02,20.01,9.94,-2.75,0.46,-0.21,21.43,-31.20,18.09,68703
7.63,19.62,9.91,-3.28,0.80,2.36,17.13,-36.86,14.76,68737
4.55,18.04,-7.50,-2.15,-1.00,3.60,10.04,-40.65,9.75,68771
-34.35,-14.17,-39.16,-1.93,-7.76,3.17,6.26,-43.22,4.76,68805
-23.40,-19.85,-8.09,2.60,-4.31,2.56,6.62,-41.87,6.53,68839
-16.06,-7.60,-3.24,3.05,-7.68,3.20,8.37,-41.38,10.49,68874
39.16,39.15,39.20,-1.50,-8.74,2.12,18.80,-43.41,7.95,68908
3.15,-3.63,13.60,-1.36,-3.98,-2.78,24.44,-39.93,7.15,68942
-2.71,12.67,-19.64,1.23,-1.47,-1.31,28.91,-38.09,5.26,68976
2.03,12.11,-8.26,-0.79,-1.62,0.28,30.72,-38.32,2.65,69010
-3.99,22.50,-2.11,-1.95,-0.08,0.38,29.30,-39.43,0.58,69044
13.76,32.55,-14.20,-0.51,1.61,-2.58,28.75,-38.12,0.79,69079
5.02,10.41,-6.01,-2.32,1.03,-7.14,31.58,-31.06,2.72,69113
39.16,-23.49,21.16,2.06,4.75,-8.27,32.02,-22.32,9.76,69147
29.08,-24.49,8.26,-1.38,2.61,1.41,27.51,-25.12,13.31,69181
25.73,10.21,11.61,-0.11,9.82,4.30,17.30,-30.82,19.83,69215
-39.20,33.21,-38.93,3.91,7.36,0.81,-1.86,-37.68,20.45,69250
6.28,38.04,-38.99,4.09,3.64,1.67,-8.71,-39.02,22.39,69284
28.52,2.64,-0.47,-1.76,-2.68,-0.93,-5.58,-42.90,19.66,69318
2.54,12.91,-7.37,-0.85,0.12,-0.35,-7.53,-43.96,19.00,69352
0.85,19.13,6.40,-2.62,1.68,0.53,-11.71,-46.10,15.11,69386
1.27,20.37,12.10,-3.68,2.27,1.60,-20.05,-47.35,5.67,69420
15.60,18.42,-2.15,-2.22,2.33,3.52,-28.44,-43.39,0.28,69455
-32.31,-1.43,-38.89,-3.64,-2.56,-1.03,-31.89,-40.43,-5.10,69489
-0.52,-4.22,-16.76,-0.70,-9.64,1.83,-29.96,-37.71,2.63,69523
-14.00,-4.77,-12.19,1.97,-8.13,2.40,-26.54,-34.08,12.26,69557
-13.37,-1.82,3.39,1.69,-5.84,-0.49,-21.88,-33.38,21.73,69591
39.16,39.16,6.63,4.77,-7.26,-1.19,-13.80,-28.66,31.53,69625
31.32,12.43,7.41,-0.06,-4.86,-1.60,-6.99,-38.48,31.92,69660
8.55,13.93,-0.93,2.14,-1.84,-1.35,1.23,-39.32,36.19,69694
5.13,14.18,-4.63,-0.62,-0.59,-0.36,4.91,-39.70,37.18,69728
-2.93,18.93,5.60,-3.25,1.34,0.42,4.06,-44.40,34.96,69762
-7.35,21.93,3.50,-2.99,2.18,1.63,-0.41,-48.48,31.15,69796
-3.14,15.66,-19.23,-2.66,4.93,-3.98,-3.07,-49.01,27.17,69831
26.78,6.32,-38.60,0.96,5.66,-9.53,1.62,-45.09,27.61,69865
-11.29,-2.18,-4.37,0.13,5.34,-7.52,-1.39,-38.50,28.31,69899
17.05,-24.17,18.83,-2.02,-0.60,0.12,-1.04,-37.84,26.26,69933
15.80,-8.94,26.80,-0.95,8.74,4.47,-15.21,-40.85,22.03,69967
-39.20,-16.00,-39.16,0.20,11.75,5.03,-38.66,-39.77,11.59,70001
-36.16,-39.20,-39.16,10.00,4.62,2.61,-48.64,-33.38,2.70,70036
39.16,0.84,-18.12,-8.29,-5.72,8.11,-43.15,-37.97,2.60,70070
-7.54,18.08,0.02,-5.91,-1.86,-0.96,-43.34,-35.95,3.27,70104
4.98,25.19,10.27,-3.77,0.87,0.84,-45.25,-32.83,-3.93,70138
15.91,24.43,0.81,-1.95,-0.11,2.63,-46.40,-25.04,-7.64,70172
-11.52,6.46,-28.44,-3.67,-0.91,0.96,-44.71,-16.28,-8.33,70207
-3.75,-12.47,-8.40,-2.04,-3.69,2.90,-42.75,-11.14,-3.95,70241
-30.78,-13.14,-15.85,2.89,-3.46,3.52,-40.11,-3.52,0.76,70275
-28.83,0.54,1.32,1.95,-4.76,1.05,-37.36,1.33,5.67,70309
25.63,11.81,-3.34,6.39,-3.57,-5.05,-34.24,0.54,11.93,70343
39.16,23.13,-39.16,9.89,-2.91,0.90,-31.35,-5.66,13.94,70377
5.75,26.05,6.86,-0.66,-0.56,-0.79,-30.12,-11.09,14.43,70412
-0.59,16.63,0.47,-2.86,0.69,-0.63,-30.36,-14.73,12.73,70446
3.95,11.96,-0.42,-2.59,0.29,0.03,-30.62,-16.50,10.64,70480
21.03,21.87,-18.95,-1.88,2.29,-1.51,-31.64,-18.27,8.94,70514
5.37,0.13,-7.84,-5.83,4.52,-2.81,-33.59,-23.11,0.94,70548
-0.04,14.11,-11.55,-2.52,4.29,-2.91,-35.08,-26.37,-7.41,70583
4.92,13.68,-6.13,-1.10,5.03,-2.69,-35.24,-28.76,-13.96,70617
0.54,14.34,-0.49,-1.73,3.37,-0.82,-35.43,-29.32,-22.14,70651
0.78,12.44,1.26,-2.05,3.88,-0.85,-36.38,-28.65,-28.91,70685
1.90,11.98,-5.26,-1.99,4.72,-1.20,-35.59,-27.81,-36.28,70719
1.50,12.46,-14.16,-1.68,5.55,-2.30,-31.66,-27.05,-46.71,70753
-2.22,4.76,-11.85,-1.88,5.58,-2.91,-24.35,-26.76,-53.92,70788
-2.81,4.29,-22.02,-0.05,4.67,-2.72,-15.05,-27.38,-58.18,70822
-10.31,2.97,-11.93,-3.94,4.11,-2.48,-3.03,-25.50,-61.49,70856
-3.95,-2.08,-15.03,-1.70,3.46,-1.14,4.09,-25.68,-60.90,70890
-7.12,0.92,-14.00,-1.75,2.15,-0.49,10.64,-27.11,-58.65,70924
-6.90,1.71,-14.26,-1.45,2.08,0.03,13.86,-28.03,-57.04,70958
-7.29,6.12,-9.27,-0.57,1.40,0.34,16.11,-29.57,-54.37,70993
-6.41,3.94,-5.04,-0.41,0.58,0.77,15.59,-31.48,-52.09,71027
-5.58,3.67,-3.72,-0.14,-0.55,1.27,12.95,-32.70,-51.34,71061
-7.73,4.76,-2.97,-0.05,-0.77,1.27,9.51,-33.84,-49.78,71095
-7.49,6.97,-5.52,-0.20,-0.97,1.15,5.79,-33.75,-50.38,71129
-3.38,6.16,-3.71,-0.34,-1.18,1.05,2.43,-32.81,-49.39,71164
-5.15,6.45,-3.06,-0.32,-1.03,0.81,-0.72,-32.40,-49.71,71198
-6.38,8.59,-3.21,-0.30,-0.44,0.63,-2.19,-31.42,-50.28,71232
-3.98,7.54,-3.03,-0.08,-0.20,0.62,-2.43,-29.93,-50.34,71266
-6.57,8.11,-3.65,0.01,-0.50,0.59,-1.99,-27.95,-50.13,71300
-2.56,7.02,-6.21,0.37,-0.42,0.92,-2.29,-26.75,-49.12,71334
-3.05,6.98,-3.73,0.51,-0.69,1.12,-1.83,-25.59,-48.52,71369
-4.12,7.46,-4.77,0.66,-1.03,1.40,-1.43,-25.33,-46.46,71403
-1.46,7.79,-0.40,0.14,-2.19,1.93,-1.75,-24.69,-45.72,71437
-2.99,9.57,-0.25,0.31,-1.59,1.97,-1.80,-25.01,-44.56,71471
-1.66,9.01,-0.63,0.21,-0.84,2.11,-1.80,-25.58,-43.45,71505
-1.40,8.65,-1.51,0.02,-0.86,2.20,-1.29,-26.73,-42.97,71540
-0.68,9.15,-2.14,0.04,-0.98,2.24,-0.99,-28.38,-43.20,71574
-2.40,9.94,-3.90,0.27,-0.95,1.90,-1.18,-30.02,-42.40,71608
-0.91,9.60,-2.88,0.16,-1.46,1.73,-2.47,-32.84,-41.08,71642
0.22,9.69,-2.66,0.16,-1.66,1.65,-2.92,-35.24,-39.51,71676
0.72,10.16,-3.24,0.17,-1.55,1.28,-5.17,-37.33,-38.21,71710
0.99,10.11,-2.91,0.12,-1.44,0.92,-6.93,-39.58,-36.03,71745
1.11,10.16,-2.65,0.08,-1.26,0.55,-8.02,-40.84,-34.23,71779
1.80,10.13,-3.16,0.11,-0.99,0.11,-8.02,-42.75,-31.44,71813
1.71,10.21,-3.12,0.10,-0.77,-0.28,-8.04,-44.37,-29.95,71847
-1.92,8.20,-4.30,-0.34,-1.33,-0.46,-7.18,-45.76,-27.95,71881
-0.94,12.82,0.50,-0.20,-3.65,-0.12,-7.44,-46.35,-25.55,71916
6.32,9.24,-1.64,-0.51,-3.72,0.22,-8.49,-46.70,-23.66,71950
1.52,10.64,-0.58,-0.69,-2.49,-0.26,-8.20,-47.14,-22.16,71984
-0.58,10.15,0.12,-0.84,-1.88,-0.38,-7.73,-47.21,-22.04,72018
-1.20,9.75,-0.30,-0.84,-1.61,-0.49,-7.25,-47.94,-22.24,72052
-0.88,9.65,-0.67,-0.82,-1.12,-0.53,-5.63,-47.72,-22.52,72086
3.21,6.56,-5.26,-0.62,-2.00,0.36,-5.60,-47.22,-22.20,72121
-1.05,10.66,-2.22,-0.52,-0.92,0.21,-5.96,-47.62,-23.19,72155
-0.09,7.67,-1.61,-0.22,-1.18,0.48,-6.08,-47.59,-22.35,72189
0.50,10.46,-2.32,-0.28,-0.25,0.47,-6.09,-48.14,-22.11,72223
2.82,9.60,-3.76,-0.25,1.28,0.04,-5.67,-48.22,-21.98,72257
1.52,10.05,-3.21,-0.19,1.81,-0.56,-4.98,-48.13,-21.70,72291
0.93,9.59,-3.85,-0.37,1.60,-0.65,-3.45,-48.23,-21.66,72326
0.42,9.24,-3.59,-0.31,0.78,-0.86,-1.94,-48.45,-21.81,72360
-0.05,9.22,-3.77,-0.22,-0.28,-0.73,-0.19,-48.95,-21.54,72394
0.13,9.02,-3.68,-0.12,-0.86,-0.57,1.27,-49.04,-20.94,72428
0.52,8.57,-3.50,-0.00,-1.39,-0.31,1.89,-49.30,-19.99,72462
1.17,8.24,-2.94,0.10,-1.47,-0.12,2.65,-49.33,-19.67,72497
1.38,8.22,-2.90,0.34,-1.05,0.05,3.07,-49.94,-18.59,72531
1.62,8.48,-2.31,0.61,-0.43,0.03,3.04,-50.20,-16.85,72565
2.33,8.92,-2.39,0.70,0.19,0.04,3.61,-50.53,-14.97,72599
-0.11,9.05,-3.11,0.68,0.77,0.07,4.30,-50.48,-12.96,72633
2.09,18.34,0.48,1.05,-2.07,0.93,3.67,-50.70,-11.60,72667
0.39,8.02,-0.73,-0.10,-3.19,1.01,3.27,-50.60,-10.39,72702
0.17,10.74,-0.08,0.60,-2.53,0.56,2.27,-49.80,-9.75,72736
-2.57,10.11,0.59,0.69,-2.40,0.29,2.92,-49.18,-7.76,72770
-0.90,12.52,0.64,0.45,-2.82,0.00,3.68,-48.48,-7.67,72804
-1.30,11.53,1.18,0.21,-2.50,-0.49,4.28,-46.64,-6.97,72838
0.70,8.94,-2.10,-0.49,-0.98,-0.32,4.84,-45.89,-7.59,72873
-2.64,10.46,-1.24,0.17,-0.51,-0.24,5.12,-44.86,-6.93,72907
1.15,8.44,-1.27,-0.16,-0.83,-0.02,4.43,-44.12,-8.02,72941
1.64,11.01,-0.99,0.20,-0.35,-0.19,4.06,-43.06,-7.69,72975
1.05,8.22,-3.83,0.13,0.41,-0.38,3.48,-41.79,-8.11,73009
2.06,10.64,-2.57,0.44,1.38,-0.51,2.50,-41.42,-7.53,73043
1.20,10.75,-2.90,0.46,1.85,-0.62,1.05,-40.88,-7.73,73078
1.61,10.15,-2.20,0.23,1.87,-0.71,0.35,-40.78,-8.18,73112
-0.54,9.64,-3.97,0.35,2.07,-0.70,-1.21,-40.09,-8.68,73146
1.07,8.22,-3.74,0.44,2.13,-0.52,-2.84,-40.08,-9.02,73180
0.09,7.97,-3.54,0.53,1.98,-0.32,-4.17,-40.54,-10.83,73214
-0.45,8.06,-3.31,0.49,1.36,0.07,-5.92,-40.73,-11.78,73249
0.41,8.45,-3.29,0.39,0.58,0.54,-7.38,-40.75,-12.96,73283
1.28,8.49,-2.61,0.38,0.26,0.78,-9.41,-41.29,-14.60,73317
1.48,8.93,-2.65,0.48,0.35,0.83,-11.63,-41.52,-16.05,73351
1.50,9.48,-2.73,0.51,0.71,0.79,-13.14,-42.01,-17.35,73385
1.35,9.94,-2.52,0.50,0.93,0.65,-15.74,-43.04,-19.16,73419
1.23,10.08,-2.55,0.45,1.14,0.52,-17.23,-43.45,-22.38,73454
1.40,9.96,-1.93,0.29,1.39,0.27,-18.94,-44.21,-23.88,73488
1.35,9.91,-1.51,0.24,1.76,-0.07,-18.46,-45.66,-26.35,73522
1.05,9.36,-1.21,0.19,2.36,-0.53,-18.42,-46.74,-29.06,73556
-0.70,8.78,-2.51,0.14,2.84,-0.94,-16.71,-48.06,-32.34,73590
1.11,13.86,-2.94,0.01,2.81,-0.70,-14.56,-49.53,-34.87,73625
-12.94,9.92,-6.70,0.64,0.99,-1.57,-12.60,-50.98,-35.82,73659
4.27,6.71,-1.98,-0.15,-1.49,-0.54,-11.63,-52.16,-35.93,73693
0.62,10.69,-0.48,0.27,-0.62,-0.68,-11.36,-52.89,-36.29,73727
1.12,10.58,-0.71,0.08,-0.79,-0.12,-11.74,-53.74,-36.12,73761
2.72,9.46,-2.10,0.07,-0.57,-0.14,-12.77,-53.87,-36.96,73795
2.06,8.98,-3.98,0.00,-0.51,-0.14,-13.52,-54.27,-37.43,73830
1.12,8.28,-3.87,0.11,-0.58,-0.47,-13.86,-55.03,-39.02,73864
1.42,8.29,-4.36,0.16,-0.58,-0.62,-13.77,-55.73,-38.10,73898
0.20,9.25,-4.18,0.11,-0.56,-0.51,-14.54,-56.90,-38.07,73932
-0.14,9.25,-3.17,0.11,-0.54,-0.40,-14.79,-57.50,-38.67,73966
0.02,9.43,-2.45,0.05,-0.53,-0.31,-15.14,-58.64,-38.73,74000
-1.71,9.82,-2.31,-0.03,-0.52,-0.16,-15.84,-58.74,-38.48,74035
-0.39,9.49,-2.43,-0.11,-0.51,-0.04,-17.29,-58.92,-39.61,74069
-0.66,9.41,-3.49,-0.27,-0.43,0.02,-18.33,-58.89,-40.27,74103
-1.38,8.94,-3.64,-0.22,-0.42,-0.02,-19.63,-59.19,-41.14,74137
-1.61,8.83,-4.09,-0.15,-0.42,-0.12,-20.86,-59.59,-40.82,74171
-1.52,8.58,-4.06,-0.15,-0.56,-0.16,-22.43,-59.51,-41.04,74206
1.25,9.42,-2.66,-0.17,-0.54,-0.21,-22.77,-59.59,-40.56,74240
-1.48,9.22,-3.62,-0.13,-0.40,-0.33,-23.72,-59.60,-40.32,74274
0.29,9.27,-3.26,-0.17,-0.47,-0.41,-24.42,-59.82,-40.95,74308
-0.62,9.24,-3.38,-0.17,-0.36,-0.54,-24.16,-60.30,-41.19,74342
0.28,9.33,-2.29,-0.19,-0.41,-0.43,-25.23,-60.70,-40.68,74376
0.84,10.11,-1.56,-0.27,-0.46,-0.26,-25.75,-61.66,-41.42,74411
0.26,10.55,-2.50,-0.36,-0.55,-0.26,-26.85,-61.17,-41.25,74445
2.51,10.75,-4.03,-0.47,-0.63,-0.11,-28.43,-61.56,-41.83,74479
3.79,10.22,-2.91,-0.65,-0.59,0.40,-30.96,-61.24,-42.22,74513
3.07,10.83,-2.42,-0.88,-0.55,0.76,-34.27,-60.30,-43.82,74547
2.16,10.26,-0.42,-1.47,-0.97,1.01,-39.23,-57.48,-44.67,74582
0.82,10.27,-4.00,-1.58,-1.05,0.44,-43.31,-55.38,-46.07,74616
0.72,10.21,-4.91,-1.65,-1.28,0.32,-48.19,-52.06,-45.34,74650
-4.37,9.79,-8.93,-1.42,-1.01,-0.70,-51.05,-49.91,-45.81,74684
0.97,9.37,-5.48,-0.51,-0.38,-1.20,-52.16,-50.72,-44.96,74718
-1.52,6.56,-4.52,-0.20,0.46,-0.91,-52.32,-51.86,-46.39,74752
-2.86,5.08,-6.01,0.50,1.03,-0.29,-52.63,-52.15,-46.45,74787
-4.18,5.28,-5.15,0.92,1.13,0.08,-53.93,-52.44,-47.57,74821
-2.94,6.94,-4.23,1.23,0.91,0.62,-55.41,-52.63,-47.63,74855
-2.96,7.98,-4.35,1.46,0.90,1.06,-57.91,-52.09,-47.49,74889
12.84,26.86,-11.21,1.17,-2.44,2.30,-64.26,-49.17,-42.68,74923
-6.21,11.54,5.58,0.45,1.21,-0.63,-64.82,-48.66,-44.40,74958
-13.51,15.22,5.55,1.39,1.19,-1.52,-61.53,-53.11,-44.68,74992
-1.17,7.29,-2.43,-0.31,-2.48,0.34,-63.34,-53.05,-40.44,75026
2.20,7.08,-5.53,0.10,-3.01,0.79,-67.26,-50.80,-33.70,75060
0.37,10.38,-3.81,0.16,-2.52,0.99,-70.46,-47.60,-25.42,75094
0.74,8.32,-3.49,-0.04,-2.05,1.22,-72.87,-44.26,-20.58,75128
2.40,8.45,-2.73,0.35,-1.47,1.11,-75.88,-40.18,-11.41,75163
-0.41,11.03,3.37,-0.18,0.49,0.13,-77.35,-37.36,-14.54,75197
-1.05,10.19,-1.01,0.32,0.68,-0.31,-77.51,-37.05,-15.78,75231
-0.66,8.80,-3.79,-0.25,-0.83,0.11,-78.24,-35.79,-14.43,75265
0.91,9.46,-1.85,-0.26,-1.80,0.36,-79.09,-34.73,-9.82,75299
4.09,9.92,-1.78,0.11,-1.87,0.37,-78.90,-33.02,-4.02,75333
1.29,9.03,-1.34,0.07,-0.99,0.02,-78.71,-31.51,-0.32,75368
4.72,9.64,-2.44,0.28,-0.50,0.01,-78.81,-31.39,1.34,75402
2.08,9.41,-0.25,0.32,0.40,-0.30,-79.44,-30.61,1.36,75436
2.17,8.93,-3.01,0.47,0.63,-0.47,-79.86,-29.64,-0.32,75470
3.00,9.67,-1.87,0.39,0.55,-0.25,-80.18,-29.79,-0.80,75504
1.18,9.74,-1.64,0.47,0.73,-0.35,-80.66,-29.16,-1.89,75539
-1.33,10.58,0.25,0.58,0.58,-0.32,-81.16,-28.41,-2.57,75573
-0.62,9.83,-1.18,0.32,-1.07,-0.14,-80.84,-29.01,2.85,75607
-0.84,9.80,-0.78,0.26,-1.84,0.02,-80.11,-27.57,4.27,75641
2.71,10.84,-1.17,0.48,-1.87,0.19,-79.14,-26.59,10.64,75675
0.22,9.09,-1.25,0.35,-2.33,0.44,-77.07,-24.88,17.26,75709
1.65,10.07,0.86,0.15,-2.60,0.54,-73.95,-23.11,24.19,75744
0.58,10.03,0.82,0.16,-1.86,0.19,-70.96,-21.78,28.68,75778
-0.74,9.61,0.49,0.03,-1.45,0.00,-68.04,-21.44,33.22,75812
0.22,9.68,-0.18,-0.10,-1.57,0.12,-65.42,-21.29,37.45,75846
-0.58,10.16,0.48,-0.19,-1.72,0.21,-62.36,-20.39,42.20,75880
-0.37,9.60,-0.54,-0.21,-1.72,0.13,-59.41,-20.26,45.25,75915
1.76,9.18,-3.36,-0.05,-1.95,0.25,-55.66,-20.26,49.01,75949
-0.25,9.47,-2.40,-0.10,-2.21,0.43,-49.82,-19.61,53.20,75983
-0.22,10.09,-1.03,0.05,-2.13,0.39,-44.87,-19.09,57.85,76017
-0.92,10.05,-0.84,0.18,-2.39,0.50,-38.99,-17.58,62.39,76051
2.25,10.68,-0.34,0.10,-2.92,0.76,-29.73,-16.38,66.12,76085
0.81,10.69,0.52,0.04,-2.87,0.63,-22.07,-16.78,68.81,76120
-0.19,9.55,1.66,-0.35,-2.16,0.43,-13.78,-17.44,71.70,76154
1.20,10.29,-1.47,-0.06,-1.57,0.27,-8.86,-17.38,71.12,76188
0.70,9.38,-2.82,-0.21,-1.88,0.43,-3.46,-18.06,72.14,76222
1.92,9.62,-2.62,-0.26,-2.54,0.67,4.90,-19.32,72.46,76256
2.07,8.70,-2.98,-0.14,-2.48,0.52,12.10,-19.83,70.84,76291
1.85,9.31,-2.72,-0.03,-2.44,0.32,20.68,-20.14,69.48,76325
2.52,9.52,-2.62,0.00,-2.32,0.15,27.58,-21.13,68.01,76359
3.24,8.62,-2.73,0.22,-1.62,-0.22,33.06,-19.75,66.85,76393
1.09,8.77,-3.32,0.31,-1.96,-0.07,38.97,-19.03,62.92,76427
2.44,10.11,-2.93,0.04,-2.35,0.29,45.00,-18.74,59.84,76461
1.23,9.72,-5.60,0.13,-2.25,-0.01,50.23,-18.75,55.41,76496
3.36,10.61,-4.55,0.11,-1.89,-0.47,55.83,-16.57,50.92,76530
3.15,9.92,-5.06,0.58,-1.02,-1.01,58.17,-13.46,47.54,76564
4.56,9.17,-3.78,0.70,-0.25,-1.23,58.56,-9.30,46.05,76598
5.78,6.78,-2.29,1.08,2.36,-1.38,54.46,-4.74,49.59,76632
3.99,6.69,-1.48,1.15,3.86,-0.76,45.28,0.07,54.44,76666
2.82,7.41,-1.63,0.77,3.79,-0.03,33.56,3.45,59.62,76701
0.96,9.08,-1.31,0.33,3.38,0.47,23.90,4.22,61.85,76735
-1.38,9.22,-1.90,0.14,3.26,0.29,13.08,3.84,62.53,76769
12.36,22.73,-3.41,0.34,3.05,0.20,4.05,4.97,62.88,76803
-3.83,9.52,-0.30,0.18,-1.42,-1.52,-1.01,5.33,62.72,76837
8.32,4.43,-4.88,0.01,-0.52,-0.47,2.19,4.37,63.59,76872
-0.14,9.71,-2.26,0.09,-0.28,-0.49,3.05,5.48,61.36,76906
2.26,8.36,-2.10,0.13,-0.31,-0.32,3.46,5.88,62.36,76940
1.18,10.17,-1.65,0.23,-0.24,-0.23,2.86,6.37,62.25,76974
2.68,9.23,-2.56,0.02,-0.28,-0.10,2.95,6.53,62.09,77008
2.71,9.15,-3.71,0.01,-0.09,0.15,2.75,6.40,61.96,77042
0.14,9.68,-2.00,0.04,-0.01,0.42,1.84,5.96,62.22,77077
0.84,9.94,-2.12,-0.01,-0.05,0.52,2.21,5.88,62.70,77111
1.72,8.81,-3.06,-0.06,-0.56,0.55,2.08,4.85,61.68,77145
2.96,8.82,-3.60,-0.06,-0.44,0.57,2.56,4.91,62.77,77179
2.89,8.92,-3.53,-0.15,-0.41,0.51,2.91,4.40,63.21,77213
2.08,8.76,-4.07,-0.16,-0.30,0.32,3.11,3.10,62.79,77248
1.85,8.51,-3.76,-0.17,-0.30,0.39,3.67,2.75,62.23,77282
0.31,9.01,-3.27,-0.09,-0.25,0.18,3.33,2.65,62.77,77316
1.02,9.28,-3.11,-0.05,-0.24,0.07,3.42,1.55,62.80,77350
2.21,9.14,-3.80,-0.02,-0.08,-0.16,3.51,1.32,63.26,77384
4.24,8.87,-3.56,-0.04,0.36,-0.05,1.84,1.08,62.80,77418
4.08,8.97,-2.24,-0.04,0.77,0.03,-1.10,1.08,61.87,77453
2.01,9.38,-3.59,0.06,1.11,-0.45,-4.12,1.07,61.77,77487
2.12,8.95,-3.00,-0.15,0.79,-0.33,-7.61,0.32,61.24,77521
0.98,9.20,-2.41,-0.35,0.97,-0.14,-9.56,-0.64,61.01,77555
0.13,9.48,-2.78,-0.30,2.04,0.11,-15.38,-2.86,60.11,77589
-1.09,10.39,-2.90,-0.15,1.88,0.10,-20.84,-2.54,58.07,77624
1.54,7.99,-4.77,-0.43,1.06,0.26,-25.29,-3.19,57.31,77658
0.66,9.46,-5.31,-0.08,0.96,0.14,-27.73,-3.51,56.39,77692
4.14,8.97,-3.24,-0.02,1.47,-0.02,-30.66,-4.11,54.85,77726
-3.96,9.88,-4.23,0.51,2.43,-0.97,-37.61,-3.41,50.51,77760
6.66,6.88,-3.21,0.57,2.19,-0.80,-41.71,-3.55,47.18,77794
-4.25,10.38,0.16,0.26,2.57,-1.88,-47.60,-5.20,42.78,77829
6.35,8.37,-2.52,0.52,0.68,-0.14,-50.42,-6.27,39.90,77863
1.35,10.55,0.06,0.17,1.06,-0.70,-51.70,-6.55,38.03,77897
2.17,11.11,0.23,0.16,1.57,-0.68,-55.23,-7.53,35.37,77931
2.94,9.99,-1.31,0.04,2.37,-1.15,-58.74,-9.76,30.04,77965
1.83,9.42,-2.04,0.02,2.70,-1.27,-62.77,-11.36,24.31,78000
0.63,8.89,-2.58,0.04,2.62,-1.17,-66.97,-14.44,17.06,78034
0.59,8.70,-2.53,0.09,2.14,-0.91,-68.78,-16.38,11.75,78068
0.56,8.86,-2.15,0.11,1.70,-0.71,-70.32,-17.76,5.88,78102
0.72,8.99,-1.72,0.11,1.18,-0.47,-71.18,-18.61,3.10,78136
1.14,9.03,-0.91,0.11,0.93,-0.28,-71.35,-19.35,-0.23,78170
1.60,9.17,-0.39,0.07,0.90,-0.24,-71.82,-19.63,-2.67,78205
2.46,10.45,0.14,0.14,1.57,-0.81,-72.00,-20.20,-6.24,78239
