ax,ay,az,gx,gy,gz,mx,my,mz,timestamp
0.76,-10.61,-0.89,-0.38,-0.28,-0.07,-31.86,-16.05,-48.68,19896
1.81,-10.04,-1.76,0.21,-0.38,-0.10,-31.66,-16.08,-47.60,19930
1.14,-9.24,-0.99,0.37,-0.30,-0.03,-31.77,-16.57,-47.95,19964
-0.39,-9.90,-0.76,0.06,-0.46,0.03,-31.51,-16.72,-47.09,19999
0.86,-10.00,-1.80,0.03,-0.45,-0.00,-31.42,-17.11,-47.12,20033
-0.85,-10.00,-0.61,0.16,-0.63,0.05,-30.77,-17.99,-46.27,20067
0.82,-10.16,-1.23,-0.17,-0.38,0.08,-30.69,-17.79,-45.15,20101
0.64,-10.01,-1.09,0.18,-0.09,0.33,-30.27,-18.44,-45.60,20135
1.22,-9.34,-1.08,0.13,0.01,0.33,-29.47,-18.18,-45.32,20169
1.65,-9.54,-1.85,0.23,-0.02,0.03,-29.28,-18.33,-45.02,20204
1.79,-9.40,-1.65,0.26,-0.07,-0.23,-29.10,-18.81,-45.48,20238
2.52,-8.63,-2.32,-0.02,0.16,-0.41,-29.19,-20.04,-45.35,20272
1.57,-9.79,-1.19,-0.17,0.17,-0.61,-28.79,-20.90,-45.13,20306
1.87,-9.70,-1.31,-0.19,0.17,-0.67,-27.83,-21.88,-46.36,20340
0.91,-10.44,-0.57,-0.14,0.26,-0.67,-27.14,-22.17,-45.69,20375
0.42,-10.07,-0.39,0.02,0.21,-0.53,-27.38,-22.74,-46.65,20409
1.09,-10.26,0.02,0.05,0.13,-0.48,-27.33,-23.66,-46.67,20443
0.13,-10.39,-0.15,0.22,0.16,-0.35,-26.38,-24.22,-47.44,20477
2.36,-10.26,-1.07,0.31,0.34,-0.18,-26.44,-25.15,-47.00,20511
0.64,-10.69,-1.30,0.37,0.90,-0.05,-26.03,-25.68,-47.19,20545
-2.10,-12.22,-2.17,0.58,0.62,-0.48,-25.42,-26.92,-47.63,20580
-2.32,-11.65,-3.80,0.48,1.25,-0.64,-24.42,-28.34,-48.58,20614
-0.73,-15.18,-5.13,0.30,0.62,-1.36,-23.34,-29.73,-49.88,20648
3.36,-9.51,-4.91,0.46,0.86,-1.88,-21.95,-32.58,-49.23,20682
7.08,-6.89,-14.77,-0.18,0.28,-2.83,-20.32,-35.02,-49.08,20716
0.91,-8.74,-2.56,-0.09,-1.28,-2.88,-18.97,-37.85,-48.87,20750
-1.42,-7.27,-4.20,-0.29,-2.19,-2.22,-19.03,-38.85,-48.04,20785
3.47,-5.36,-3.52,-0.67,-2.12,-1.38,-19.39,-39.70,-46.64,20819
3.62,-4.48,-1.67,-0.68,-1.25,-0.04,-20.30,-39.80,-45.53,20853
1.81,-4.93,-0.76,-0.48,-1.02,0.74,-22.36,-39.04,-45.35,20887
3.06,-5.46,-0.67,-0.15,-1.89,1.20,-24.12,-37.68,-44.61,20921
1.91,-7.43,-0.18,0.04,-2.25,1.74,-27.13,-36.52,-41.77,20956
2.15,-8.72,-1.43,0.03,-2.33,1.98,-29.25,-33.66,-38.89,20990
3.13,-9.23,-2.50,-0.14,-2.11,2.23,-31.91,-30.72,-34.99,21024
3.88,-9.26,-2.31,-0.41,-1.79,2.52,-33.24,-27.89,-34.27,21058
5.61,-10.73,-2.68,-0.70,-0.45,2.92,-33.86,-24.83,-33.78,21092
5.23,-11.24,-2.99,-0.76,2.01,2.74,-34.03,-21.09,-35.71,21126
28.58,-17.93,28.04,-1.31,3.46,1.47,-33.02,-19.12,-40.06,21161
-13.55,-17.23,2.11,-0.86,2.69,-0.52,-30.87,-19.34,-44.26,21195
4.38,-7.51,2.26,0.49,-0.28,-1.43,-30.75,-21.89,-43.92,21229
-0.36,-11.66,-6.45,0.43,-0.72,-0.51,-30.91,-22.98,-43.50,21263
6.32,-6.83,-5.46,0.50,-0.16,-0.11,-31.19,-23.98,-43.58,21297
5.67,-6.51,-8.18,0.37,0.01,-0.54,-31.42,-24.77,-43.88,21332
3.78,-8.38,-5.00,0.29,0.30,-0.40,-31.15,-25.59,-43.91,21366
2.61,-8.37,-1.56,0.40,0.40,-0.34,-31.22,-26.22,-44.68,21400
2.91,-9.83,-1.41,0.32,0.54,-0.13,-30.75,-26.67,-44.80,21434
1.25,-9.54,-1.88,0.44,0.85,-0.07,-30.39,-26.73,-46.27,21468
0.31,-8.87,-4.04,0.50,1.00,-0.16,-30.08,-27.42,-46.89,21502
-1.17,-10.63,-2.50,0.55,1.05,-0.04,-29.45,-28.05,-48.00,21537
-1.33,-11.41,0.39,0.68,1.09,0.00,-28.94,-28.47,-49.63,21571
-2.55,-10.02,0.37,0.97,1.03,0.25,-28.21,-28.85,-50.10,21605
0.13,-9.68,0.46,1.08,1.19,0.46,-28.19,-29.22,-50.61,21639
-3.50,-13.35,-1.09,1.27,1.83,0.82,-28.11,-29.33,-52.12,21673
-4.18,-11.87,-3.94,1.45,2.35,1.17,-26.59,-29.63,-53.48,21708
2.63,-9.77,-3.54,1.33,2.31,1.46,-25.33,-29.52,-55.58,21742
10.98,-5.61,-6.41,0.71,2.76,1.09,-24.39,-28.78,-57.72,21776
-3.04,-5.50,-10.18,-0.32,1.61,0.64,-22.33,-27.61,-59.75,21810
10.32,-8.04,4.15,-1.01,0.85,0.70,-23.28,-25.55,-61.02,21844
9.31,-5.44,-2.55,-1.14,5.91,2.08,-19.01,-23.05,-64.38,21878
4.90,-7.88,-3.36,-1.67,7.37,2.72,-9.03,-19.10,-68.52,21913
2.82,-10.67,-6.15,-1.91,7.46,2.47,1.36,-15.76,-68.69,21947
-4.32,-10.84,-2.75,-1.86,9.19,2.13,15.65,-13.62,-65.29,21981
-8.19,-15.42,-0.35,-1.14,4.87,0.45,23.91,-12.07,-60.82,22015
-3.77,-13.67,0.12,0.21,1.72,-0.48,26.70,-11.82,-58.62,22049
2.43,-8.84,-0.64,0.69,-0.04,-0.90,26.82,-11.53,-58.32,22083
8.94,-5.68,-5.42,0.75,-0.53,-0.59,26.07,-11.93,-59.05,22118
9.84,-5.13,-6.73,0.38,0.28,-0.42,25.68,-11.97,-58.14,22152
9.60,-5.53,-8.79,-0.22,0.75,-0.67,25.64,-11.43,-57.13,22186
7.57,-5.11,-7.16,-0.36,1.24,-0.85,26.57,-11.02,-55.74,22220
3.54,-6.13,-6.17,-0.44,1.17,-1.02,26.89,-9.73,-53.89,22254
0.55,-5.76,-2.78,-0.62,0.65,-1.25,27.36,-9.08,-53.10,22289
-7.34,-17.52,-2.72,-0.62,0.54,-1.13,27.32,-8.11,-52.50,22323
-2.03,-12.20,0.51,-0.62,0.37,-1.51,26.83,-7.80,-53.01,22357
-3.32,-12.39,-0.89,0.00,-0.14,-1.02,26.78,-7.53,-52.72,22391
-1.22,-11.18,-1.25,0.49,-0.60,-0.62,25.96,-7.78,-53.35,22425
1.78,-9.53,-3.78,0.69,-0.47,-0.53,25.81,-8.39,-55.10,22459
2.57,-8.88,-6.11,0.73,-0.09,-0.78,25.61,-9.19,-55.04,22494
2.56,-5.60,-4.26,0.58,0.52,-0.88,26.24,-8.73,-56.55,22528
5.16,-9.27,-4.32,0.36,0.88,-0.54,27.04,-8.49,-56.30,22562
6.76,-8.41,-3.09,0.02,1.85,-0.17,29.30,-8.94,-56.11,22596
4.34,-7.87,-5.99,-0.15,2.61,-0.18,31.53,-7.95,-54.76,22630
1.52,-13.38,-9.17,0.06,2.70,-0.10,34.89,-7.35,-51.67,22665
-0.72,-13.89,-7.98,-0.28,3.35,0.32,37.39,-6.56,-49.59,22699
-5.50,-13.81,-9.36,-0.52,4.27,0.59,39.94,-6.49,-43.99,22733
-5.77,-14.43,-8.73,-1.07,5.03,1.08,42.97,-6.07,-35.25,22767
-4.63,-14.66,-10.07,-2.10,5.10,0.96,44.46,-6.49,-27.23,22801
2.25,-11.82,-8.76,-2.86,5.36,0.93,44.45,-7.06,-17.07,22835
-1.65,-3.87,-8.73,-3.72,6.24,1.34,42.63,-10.22,-7.60,22870
-2.18,-5.47,-7.91,-3.95,4.59,1.13,39.37,-13.12,-1.04,22904
-11.78,-13.92,-0.42,-3.28,3.52,1.66,35.18,-18.66,4.40,22938
-1.12,-15.36,1.83,-1.87,0.78,1.32,33.63,-21.24,4.74,22972
4.06,-7.77,-0.21,-1.29,-0.29,0.83,32.72,-23.18,4.34,23006
1.97,-5.72,-4.55,-1.57,0.49,0.43,32.18,-25.30,3.92,23041
-1.47,-5.90,-4.81,-1.39,0.06,0.49,31.82,-26.38,3.49,23075
2.09,-8.64,-5.15,-1.06,-0.57,0.53,31.47,-27.54,2.50,23109
2.74,-9.26,-5.39,-0.74,-1.49,-0.39,32.81,-27.62,0.25,23143
2.39,-10.13,-5.02,-1.12,-0.76,-0.93,34.07,-28.03,-0.73,23177
3.95,-7.12,-4.52,-1.27,-0.66,-0.96,33.60,-27.27,-2.28,23211
1.11,-9.01,-2.60,-1.10,-0.75,-0.90,34.81,-26.95,-3.51,23246
0.46,-9.07,-3.34,-0.37,-1.67,-1.57,35.43,-25.30,-6.36,23280
1.32,-8.98,-2.71,0.12,-2.61,-1.81,37.99,-23.74,-8.94,23314
1.54,-11.84,-0.60,0.69,-3.06,-1.55,39.11,-21.12,-11.94,23348
0.27,-13.60,-3.68,0.71,-2.78,-1.29,39.81,-19.07,-16.44,23382
1.76,-8.36,-6.55,0.41,-1.66,-0.70,40.09,-18.20,-19.12,23416
8.92,-6.22,-5.68,-0.21,-0.08,0.21,39.89,-18.06,-19.00,23451
6.06,-7.28,-4.46,-0.32,-0.47,-0.30,39.17,-18.18,-20.01,23485
5.46,-8.73,-4.71,0.07,-1.74,-1.09,39.23,-17.10,-22.19,23519
3.16,-12.22,-2.29,0.75,-3.96,-2.40,38.12,-14.69,-26.26,23553
-0.18,-17.46,1.98,1.14,-4.98,-3.11,36.96,-12.31,-32.84,23587
1.15,-18.54,3.99,1.57,-5.16,-2.89,33.54,-9.88,-40.82,23622
-2.59,-22.95,3.32,1.93,-4.80,-2.87,30.34,-8.13,-46.49,23656
5.41,-7.44,2.17,2.48,-4.78,-2.89,25.74,-7.56,-51.11,23690
6.19,-9.67,-5.18,2.57,-3.06,-0.99,21.79,-9.37,-55.28,23724
7.01,-8.07,-9.79,1.80,-1.15,-1.11,20.04,-11.08,-55.95,23758
2.17,-5.59,-4.41,0.46,1.14,-1.45,20.05,-10.99,-56.24,23792
0.72,-7.63,-4.74,0.36,1.58,-0.57,21.60,-12.13,-55.07,23827
3.91,-8.56,-6.91,0.09,1.82,-0.38,23.53,-12.28,-54.02,23861
5.95,-7.26,-8.86,-0.33,2.53,-0.54,26.10,-11.90,-52.67,23895
1.02,-6.40,-3.77,-0.45,2.69,-0.62,29.39,-11.65,-50.82,23929
-1.34,-8.72,-6.04,-0.35,2.50,0.05,32.10,-11.88,-48.38,23963
0.42,-7.97,-7.35,-0.35,2.53,0.31,34.17,-11.82,-46.61,23998
0.10,-8.42,-7.52,-0.74,3.35,0.41,36.83,-11.96,-42.91,24032
3.29,-4.79,-5.65,-0.92,2.97,-0.10,39.17,-11.01,-37.94,24066
-0.67,-9.73,-7.80,-0.86,2.70,0.31,41.16,-11.15,-34.95,24100
-2.57,-10.53,-10.48,-0.95,2.72,0.34,42.50,-11.43,-29.73,24134
1.50,-7.91,-6.60,-1.45,3.08,-0.41,42.82,-10.07,-25.50,24168
-1.40,-7.39,-2.54,-1.50,2.50,-0.27,43.22,-9.15,-21.73,24203
-1.43,-11.89,-4.92,-1.43,2.12,0.45,42.88,-10.06,-17.79,24237
-2.66,-14.52,-8.27,-1.91,2.65,0.81,42.17,-10.92,-14.69,24271
-1.69,-4.54,-12.21,-2.94,4.11,0.82,40.76,-12.85,-7.79,24305
-6.35,-0.63,-14.64,-4.14,5.84,2.37,36.83,-18.11,-1.53,24339
-7.21,-11.52,-11.18,-4.66,6.41,3.41,30.72,-24.95,4.79,24374
-2.75,-9.83,-6.83,-4.14,4.81,2.36,23.68,-32.52,7.42,24408
-1.20,-10.02,1.89,-2.22,0.97,0.85,20.78,-35.95,7.26,24442
5.16,-9.13,-0.06,0.36,-4.27,-1.20,23.56,-36.17,4.24,24476
8.74,-7.24,-2.47,1.59,-6.41,-1.69,30.93,-33.05,-0.28,24510
9.80,-9.42,-6.52,1.29,-5.72,-1.46,36.26,-30.17,-6.08,24544
8.07,-10.80,-3.74,0.05,-2.76,-0.55,39.39,-28.54,-10.82,24579
7.21,-11.05,-1.61,-0.30,-1.92,-0.51,39.77,-27.70,-13.37,24613
3.88,-10.28,-0.21,0.35,-3.32,-1.36,41.16,-26.03,-16.65,24647
-1.23,-10.56,-3.43,0.98,-5.09,-2.38,42.03,-22.07,-24.41,24681
-0.57,-15.35,-1.90,1.62,-7.32,-4.19,41.68,-16.85,-33.44,24715
-1.37,-19.80,2.85,2.07,-7.18,-4.95,37.15,-10.82,-44.55,24750
6.17,-10.71,6.00,2.73,-7.03,-4.78,30.91,-7.12,-52.85,24784
7.75,-8.51,1.43,3.03,-5.12,-2.83,24.48,-7.63,-57.28,24818
9.91,-10.20,-3.48,1.52,-1.26,-2.63,19.22,-7.60,-59.78,24852
11.57,2.47,-7.10,0.03,1.68,-1.98,19.60,-6.88,-58.52,24886
4.93,-4.60,-12.59,-0.41,2.89,-0.35,22.90,-6.49,-55.04,24920
7.20,-11.32,-8.24,-0.57,3.86,0.24,25.86,-6.66,-51.48,24955
4.76,-6.87,-8.17,-1.28,4.84,0.55,29.57,-6.97,-47.72,24989
2.33,-8.47,-14.26,-1.51,5.32,1.36,33.32,-8.08,-40.51,25023
-3.40,-9.23,-12.94,-1.45,5.14,1.42,35.93,-10.07,-33.91,25057
-5.46,-7.57,-13.18,-1.72,5.19,1.12,37.14,-12.28,-26.76,25091
-1.14,-8.95,-14.38,-1.99,4.60,0.81,37.12,-13.49,-20.67,25125
-4.99,-9.20,-10.30,-2.29,4.53,0.94,36.92,-15.49,-16.62,25160
-6.88,-10.75,-8.67,-2.97,5.19,1.76,34.62,-18.82,-9.85,25194
-5.79,-6.79,-9.60,-2.92,4.14,1.63,32.33,-22.51,-5.73,25228
-6.41,-7.78,-11.63,-2.94,3.78,1.64,28.31,-26.97,-2.37,25262
-0.40,-7.49,-7.24,-2.65,2.77,1.20,26.29,-30.28,-1.59,25296
0.06,-8.96,-4.38,-2.11,1.15,0.61,24.93,-32.58,-1.40,25331
5.45,-5.41,-2.65,-1.09,-1.28,-0.78,25.99,-33.02,-3.58,25365
7.63,-7.57,-4.58,-0.42,-2.76,-1.48,28.34,-32.34,-5.93,25399
7.50,-4.61,-0.88,-0.09,-3.26,-1.81,32.20,-30.52,-8.78,25433
6.41,-10.82,-3.09,0.63,-4.89,-2.50,35.05,-27.43,-13.33,25467
8.93,-12.90,0.31,1.14,-6.12,-3.37,37.66,-22.84,-20.34,25501
3.17,-16.55,3.54,1.13,-5.31,-3.24,38.91,-18.34,-28.43,25536
3.77,-17.28,0.76,1.68,-6.12,-3.52,37.93,-14.44,-35.56,25570
-1.01,-19.35,3.00,2.04,-6.43,-4.70,33.38,-9.98,-44.42,25604
8.09,-8.73,2.95,2.85,-6.99,-4.66,26.50,-7.48,-52.03,25638
4.43,-16.13,6.94,3.61,-5.58,-2.75,20.42,-8.18,-57.31,25672
9.28,-17.07,2.43,2.71,-3.37,-2.20,15.04,-10.55,-60.27,25707
9.42,1.41,-9.14,1.34,-0.24,-2.31,13.55,-11.69,-60.45,25741
8.65,1.12,-9.95,0.43,2.52,-1.76,15.23,-11.77,-59.85,25775
3.25,-7.03,-15.75,-0.38,3.48,-1.07,18.94,-11.21,-57.29,25809
2.93,-6.14,-9.18,-0.96,4.24,-0.41,23.03,-11.17,-54.57,25843
1.34,-8.83,-9.23,-1.09,4.64,0.73,28.00,-11.01,-49.78,25877
1.67,-6.90,-11.78,-1.23,4.97,1.26,32.05,-11.18,-44.40,25912
-2.17,-10.24,-12.16,-1.47,5.47,1.60,36.36,-12.93,-37.11,25946
-5.08,-8.37,-10.89,-1.55,5.33,1.65,38.23,-15.48,-31.57,25980
-8.40,-9.02,-13.01,-1.95,5.99,1.90,39.54,-17.90,-24.32,26014
-11.85,-10.56,-17.60,-2.52,6.47,2.59,38.06,-22.32,-15.64,26048
-11.65,-11.14,-17.06,-3.28,7.06,2.52,35.50,-26.15,-9.21,26083
-9.51,-8.75,-9.82,-4.18,7.09,1.67,29.16,-31.79,-2.57,26117
-7.88,-7.46,-2.58,-3.68,5.10,2.07,23.78,-35.84,0.03,26151
-3.54,-15.29,-1.52,-2.76,2.64,1.22,20.05,-39.39,-0.04,26185
-2.09,-7.92,-5.90,-1.57,-0.17,-0.93,19.98,-40.97,-1.96,26219
6.70,-3.29,-3.85,-0.99,-1.97,-1.53,21.88,-40.32,-4.11,26253
2.96,-8.67,-3.55,-0.20,-3.12,-1.68,26.29,-39.20,-6.68,26288
7.03,-8.35,-6.27,0.29,-4.44,-2.65,30.49,-36.95,-9.82,26322
6.96,-7.99,-3.14,0.23,-3.80,-2.66,34.42,-34.87,-13.43,26356
2.28,-11.15,-1.75,0.25,-3.10,-1.88,37.15,-31.98,-17.54,26390
-1.59,-15.28,-0.92,0.75,-3.61,-1.35,38.40,-30.36,-21.19,26424
1.77,-13.24,-3.18,1.07,-3.99,-1.33,39.77,-28.22,-26.88,26458
2.50,-13.61,-2.57,1.03,-3.54,-1.31,40.25,-26.09,-30.80,26493
1.01,-12.32,-6.00,0.84,-3.32,-2.12,40.47,-24.13,-34.89,26527
8.73,-4.52,-2.12,0.88,-3.94,-2.86,40.05,-20.74,-40.31,26561
7.00,-9.68,1.56,1.47,-4.45,-2.41,38.25,-17.99,-46.27,26595
4.47,-13.38,1.46,1.61,-4.27,-2.28,35.94,-16.05,-51.94,26629
3.73,-10.23,-0.19,1.74,-3.85,-2.59,31.79,-14.69,-56.80,26664
0.98,-9.43,-0.40,1.66,-2.13,-1.09,29.22,-14.57,-59.40,26698
5.27,-9.41,-1.67,1.13,-0.23,-0.49,28.19,-15.11,-59.59,26732
1.19,-8.93,-6.99,0.28,1.98,-0.39,30.05,-15.11,-58.10,26766
-1.03,-5.41,-5.26,0.01,2.31,-0.34,32.34,-13.59,-55.51,26800
0.57,-8.90,-4.35,0.02,2.24,0.29,35.06,-13.08,-53.49,26834
-2.91,-12.21,-4.90,-0.15,2.82,0.48,37.26,-13.01,-50.47,26869
0.22,-5.94,-8.14,-0.42,3.14,0.26,39.74,-12.44,-44.96,26903
-1.28,-8.02,-4.82,-0.56,3.03,0.70,41.48,-12.06,-40.82,26937
-0.10,-10.23,-6.78,-0.65,2.93,0.80,42.59,-12.51,-35.65,26971
0.02,-7.60,-5.05,-0.88,2.87,0.60,43.16,-13.14,-31.75,27005
-0.07,-6.38,-6.06,-1.06,2.84,1.19,43.32,-13.80,-27.32,27040
0.42,-8.40,-9.41,-1.44,3.29,1.55,42.71,-16.31,-22.36,27074
2.16,-9.01,-7.81,-1.83,3.34,1.04,41.07,-18.30,-17.87,27108
1.85,-9.79,-5.62,-1.91,2.30,0.15,40.11,-22.41,-14.16,27142
2.22,-7.61,-5.01,-1.35,0.52,-0.65,38.89,-19.13,-12.83,27176
1.25,-7.87,-3.50,-0.87,-0.48,-0.65,38.75,-18.69,-13.27,27210
1.19,-9.81,-2.31,-0.80,-0.36,-0.46,38.41,-18.58,-14.38,27245
-3.54,-8.87,-4.96,-0.60,-0.53,-0.76,38.47,-18.12,-16.19,27279
-1.10,-7.99,-4.68,-0.16,-1.06,-0.28,39.20,-17.70,-17.13,27313
-1.92,-8.90,-7.89,-0.82,0.82,0.78,38.42,-19.39,-16.65,27347
3.82,-6.86,-5.12,-1.01,1.07,1.07,38.16,-21.06,-15.17,27381
2.90,-9.36,-4.97,-0.88,0.26,0.29,38.13,-22.38,-15.08,27416
6.69,-10.17,-3.09,0.17,-2.58,-0.93,38.12,-21.60,-17.85,27450
2.76,-11.45,-1.42,0.89,-4.15,-1.73,38.94,-20.30,-22.45,27484
3.16,-14.94,0.91,1.64,-5.65,-2.60,38.99,-17.13,-30.37,27518
-0.93,-15.68,3.22,2.17,-6.72,-3.17,36.64,-14.28,-38.31,27552
1.01,-14.44,3.20,2.81,-6.52,-2.75,32.55,-12.36,-48.30,27586
4.78,-8.40,-4.12,2.71,-4.70,-2.33,27.87,-12.28,-53.23,27621
9.92,-5.10,-6.66,2.00,-2.65,-1.87,25.07,-12.70,-56.56,27655
7.08,-5.62,-4.16,0.81,0.33,-1.23,24.42,-12.58,-56.52,27689
5.43,-8.54,-4.46,0.31,1.36,-0.49,25.11,-12.53,-55.36,27723
2.63,-8.73,-4.22,0.17,1.80,-0.35,27.00,-12.58,-54.31,27757
4.50,-7.92,-5.88,-0.25,2.63,-0.26,29.06,-12.66,-51.68,27791
3.30,-8.70,-7.82,-0.56,3.25,0.04,31.88,-12.17,-48.98,27826
-0.65,-6.93,-7.20,-0.70,3.52,0.40,34.67,-12.12,-44.37,27860
-2.06,-10.87,-7.16,-0.97,3.77,0.69,36.92,-12.96,-40.38,27894
0.11,-8.53,-8.84,-1.14,3.72,0.58,38.73,-13.69,-35.37,27928
-2.25,-5.05,-7.37,-1.37,3.52,0.30,40.19,-13.84,-30.97,27962
-5.51,-7.77,-8.92,-1.47,3.42,1.02,40.65,-14.12,-27.65,27997
-1.18,-7.72,-9.68,-1.88,3.82,1.42,40.53,-16.87,-21.56,28031
-4.95,-5.96,-9.72,-2.68,4.89,2.14,39.75,-19.83,-15.68,28065
-6.75,-7.38,-9.22,-2.95,4.60,2.60,33.78,-25.05,-9.25,28099
-3.46,-11.31,-7.91,-2.76,3.38,2.16,34.64,-29.30,-6.85,28133
-2.08,-7.62,-4.81,-2.14,1.57,0.73,33.05,-32.29,-5.52,28167
1.69,-7.33,-4.44,-0.96,-1.42,-0.44,33.41,-33.65,-7.82,28202
3.34,-6.93,-6.20,-0.67,-2.15,-1.27,35.52,-32.56,-9.87,28236
6.72,-7.50,-4.06,-0.69,-1.71,-1.61,38.00,-30.96,-12.32,28270
1.50,-10.12,-2.60,-0.38,-2.09,-1.71,39.71,-28.60,-15.14,28304
-0.44,-11.50,-0.70,0.73,-4.76,-2.55,41.64,-25.26,-19.88,28338
2.28,-12.03,0.00,1.05,-5.10,-2.80,42.93,-19.82,-27.96,28373
-3.29,-17.78,0.11,1.29,-4.80,-2.27,43.00,-16.54,-34.24,28407
-1.57,-17.38,-0.31,1.57,-4.51,-2.00,40.79,-13.58,-39.74,28441
8.76,-5.58,-4.82,1.23,-3.05,-2.64,38.34,-11.27,-45.19,28475
9.05,-4.88,-2.80,1.21,-2.01,-1.70,36.22,-9.22,-47.84,28509
3.70,-9.57,1.71,1.61,-2.87,-2.02,32.75,-8.10,-51.56,28543
-0.22,-12.87,0.80,1.75,-2.70,-2.18,29.19,-7.12,-53.86,28578
-0.06,-9.32,-2.27,1.84,-2.03,-1.60,26.25,-7.37,-56.93,28612
5.67,-5.07,-2.85,1.31,0.05,-0.07,24.58,-9.12,-57.31,28646
6.79,-8.37,-6.96,0.63,1.67,0.48,26.28,-10.70,-55.92,28680
-0.45,-9.08,-4.76,-0.04,2.61,-0.35,28.98,-11.09,-52.27,28714
2.98,-7.24,-7.66,-0.17,2.25,-1.49,30.18,-10.20,-49.72,28749
4.40,-1.81,-5.25,-0.18,1.88,-1.76,31.88,-9.46,-48.14,28783
3.81,-9.52,-6.80,-0.37,2.82,-0.74,33.91,-8.80,-45.21,28817
2.32,-4.31,-8.19,-0.53,2.92,-0.89,35.05,-8.56,-41.44,28851
7.94,-3.23,-9.31,-0.84,3.17,-0.57,37.26,-7.32,-36.83,28885
-1.28,-7.61,-9.90,-1.37,4.43,0.80,39.20,-8.23,-31.32,28919
-4.90,-11.75,-13.04,-1.54,4.68,2.04,40.92,-10.39,-24.32,28954
-4.95,-8.10,-16.49,-1.91,5.72,2.91,41.58,-14.63,-16.95,28988
-8.02,-11.34,-16.93,-2.98,6.80,2.38,38.95,-18.63,-9.06,29022
-13.19,-12.62,-12.15,-3.44,6.14,1.46,34.67,-22.76,-0.80,29056
-7.68,-8.58,-8.87,-3.63,5.38,1.79,29.66,-27.32,2.95,29090
-12.78,-9.35,-9.74,-3.12,4.21,2.15,23.41,-32.18,5.45,29125
-5.37,-11.44,-4.57,-2.57,2.09,0.85,19.54,-35.90,5.28,29159
2.43,-5.35,-4.66,-1.17,-1.73,-1.34,19.58,-36.88,4.03,29193
4.74,-6.56,-2.15,-0.34,-3.39,-1.63,24.33,-36.26,1.21,29227
6.17,-12.47,-4.86,0.06,-4.06,-2.47,29.04,-34.36,-2.97,29261
12.39,-6.66,-3.05,0.42,-4.70,-2.76,33.59,-31.66,-6.11,29295
15.84,-10.35,0.22,-0.09,-3.11,-2.32,36.92,-27.97,-11.47,29330
7.35,-5.57,-1.21,0.08,-3.28,-2.25,38.95,-25.52,-15.16,29364
7.53,-9.75,-1.30,0.15,-3.27,-2.22,40.22,-22.68,-19.91,29398
5.50,-8.45,-2.01,0.16,-3.21,-2.43,40.89,-20.11,-24.10,29432
1.39,-10.50,0.64,0.51,-3.71,-2.55,41.36,-17.03,-29.29,29466
0.05,-18.84,1.93,1.30,-4.60,-2.22,40.57,-13.88,-36.20,29500
1.68,-16.37,5.47,1.85,-5.59,-2.70,37.78,-11.55,-43.39,29535
-2.66,-16.68,5.52,2.56,-5.60,-1.97,32.67,-10.57,-51.18,29569
-1.09,-14.86,1.33,2.73,-4.98,-1.28,28.25,-11.22,-56.66,29603
3.53,-11.69,-3.33,2.29,-3.46,-1.50,23.34,-12.91,-59.53,29637
3.60,-6.72,-8.27,1.49,-1.60,-2.47,20.53,-13.20,-61.85,29671
7.00,-5.44,-4.26,0.83,0.30,-1.67,19.35,-12.88,-60.93,29706
5.31,-9.11,-5.54,0.35,1.79,-0.94,21.53,-12.60,-61.20,29740
8.06,-11.37,-9.22,-0.16,2.48,-1.37,23.78,-11.75,-59.57,29774
7.23,-4.06,-6.49,-0.76,3.61,-1.55,27.00,-9.62,-56.64,29808
4.47,-3.40,-6.29,-0.85,3.66,-0.79,31.23,-7.50,-52.84,29842
1.76,-4.77,-10.89,-0.92,3.97,-0.16,33.92,-6.78,-48.67,29876
1.17,-6.16,-11.85,-1.30,4.67,0.43,37.75,-5.96,-42.20,29911
-0.89,-8.36,-9.38,-1.62,5.10,1.30,40.03,-6.64,-35.18,29945
-8.43,-11.80,-11.57,-1.60,5.18,2.47,41.52,-8.77,-28.37,29979
-7.94,-9.92,-13.54,-1.69,5.37,3.44,41.76,-13.40,-19.83,30013
-5.40,-9.68,-16.60,-2.63,6.37,2.85,40.65,-17.79,-12.09,30047
-2.85,-12.70,-12.05,-3.67,6.39,0.90,36.42,-21.29,-3.61,30082
-11.29,-8.82,-4.32,-3.26,3.39,-1.08,33.35,-22.99,0.47,30116
-5.28,-3.09,-8.20,-2.18,1.02,-1.00,32.43,-23.00,0.42,30150
2.14,-11.67,-4.04,-2.28,1.20,-0.34,31.42,-24.63,1.80,30184
-1.77,-9.24,-5.91,-1.80,0.90,0.07,29.89,-25.97,1.67,30218
3.00,-7.01,-6.56,-0.95,-0.67,-0.30,30.97,-26.31,0.79,30252
3.99,-10.11,-2.26,0.15,-2.88,-0.84,32.26,-25.62,-2.63,30287
7.08,-7.82,-3.64,1.36,-5.41,-1.71,35.79,-23.91,-6.93,30321
6.10,-12.71,-2.12,1.87,-6.34,-2.11,39.54,-20.21,-15.68,30355
4.97,-15.47,0.83,1.80,-5.69,-2.44,40.57,-16.73,-23.08,30389
4.43,-15.12,0.11,2.13,-5.90,-2.80,39.62,-12.42,-31.72,30423
-0.14,-12.20,0.52,2.65,-6.45,-3.12,36.88,-9.54,-40.18,30458
7.66,-10.67,2.83,3.10,-6.38,-2.52,32.18,-8.58,-47.84,30492
10.43,-10.59,0.33,2.88,-4.26,-1.71,26.48,-9.53,-54.37,30526
11.62,-8.11,-2.53,1.39,-0.87,-1.43,24.14,-10.13,-54.78,30560
6.03,-2.43,-5.33,0.29,1.88,-0.75,24.96,-10.49,-53.73,30594
2.47,-5.90,-7.17,0.13,2.42,-0.24,26.94,-10.30,-52.56,30628
2.18,-8.77,-7.42,-0.25,2.64,-0.37,28.75,-10.39,-50.09,30663
-0.12,-5.87,-4.31,-0.59,2.98,-0.21,31.34,-10.41,-46.17,30697
-3.00,-9.65,-7.64,-0.56,3.11,0.59,33.46,-11.37,-42.71,30731
0.05,-8.84,-8.13,-0.82,3.44,0.81,35.82,-12.17,-38.85,30765
0.84,-7.84,-7.45,-1.44,4.05,0.47,38.00,-13.20,-34.13,30799
1.49,-7.38,-7.14,-1.73,4.19,0.76,38.72,-13.90,-29.60,30833
-4.31,-8.21,-6.64,-2.18,4.40,1.05,39.29,-15.32,-22.89,30868
-4.17,-7.34,-8.16,-2.16,3.91,1.31,38.91,-17.20,-18.30,30902
-5.06,-9.18,-8.61,-2.22,3.65,1.82,38.35,-19.82,-13.77,30936
-2.60,-9.96,-6.34,-1.92,2.39,1.21,36.54,-22.46,-10.54,30970
-0.07,-6.55,-6.40,-1.59,1.39,0.57,35.37,-23.05,-8.87,31004
0.58,-8.02,-6.28,-1.58,0.93,0.08,35.12,-24.39,-8.58,31039
0.06,-9.10,-4.54,-1.05,-0.24,-0.19,34.77,-24.79,-8.64,31073
-1.30,-9.27,-2.91,-0.43,-1.53,-0.68,35.22,-24.41,-10.95,31107
1.75,-8.53,-3.62,0.21,-2.71,-1.15,36.52,-22.89,-14.54,31141
2.01,-10.45,-2.27,0.43,-2.77,-1.12,36.92,-21.78,-18.20,31175
0.64,-12.28,-1.98,0.60,-2.96,-1.10,37.39,-20.40,-21.57,31209
3.37,-11.66,-3.51,0.89,-3.32,-1.11,38.16,-18.81,-25.46,31244
5.00,-10.50,-4.38,0.83,-3.03,-1.40,37.77,-16.87,-29.86,31278
2.82,-10.07,-0.79,0.87,-2.80,-1.43,37.08,-16.12,-34.20,31312
0.68,-12.33,-0.34,1.20,-3.08,-1.71,35.82,-14.59,-37.94,31346
4.60,-10.19,1.05,1.58,-3.75,-1.90,33.82,-13.61,-42.53,31380
-0.99,-11.62,-0.24,2.09,-4.00,-1.68,31.41,-13.49,-47.08,31415
4.21,-10.14,-2.71,2.10,-3.21,-1.50,28.54,-14.40,-51.68,31449
4.96,-8.33,-3.65,1.49,-1.62,-1.67,26.25,-14.12,-53.45,31483
6.14,-6.20,-2.80,0.73,0.16,-1.34,26.38,-13.94,-53.99,31517
2.72,-8.57,-3.83,0.43,0.94,-0.77,27.13,-14.40,-53.03,31551
2.39,-9.54,-5.01,0.21,1.45,-0.43,28.78,-13.75,-52.21,31585
2.64,-6.61,-6.09,-0.10,1.89,-0.05,31.03,-13.62,-50.54,31620
3.45,-7.32,-6.16,-0.27,2.26,0.13,33.38,-14.13,-48.89,31654
1.45,-9.47,-4.32,-0.56,2.47,0.21,35.76,-13.93,-46.01,31688
1.62,-8.69,-4.73,-0.71,2.75,0.39,38.19,-13.27,-42.65,31722
3.67,-7.23,-4.88,-1.04,3.17,0.65,40.50,-13.24,-38.78,31756
-0.55,-10.46,-6.88,-1.66,3.99,1.14,42.28,-13.61,-33.27,31791
-2.42,-8.70,-7.50,-2.01,4.68,1.65,43.03,-14.94,-25.74,31825
-2.32,-8.44,-8.22,-2.47,4.77,1.91,43.06,-17.30,-19.31,31859
-2.97,-9.73,-6.01,-2.69,4.37,1.75,41.26,-20.80,-11.65,31893
-3.58,-8.33,-4.59,-2.35,3.26,1.63,39.11,-23.63,-8.83,31927
0.07,-7.78,-6.27,-1.93,2.19,1.45,36.96,-26.12,-5.77,31961
-2.22,-8.08,-8.54,-1.65,1.51,0.84,35.40,-28.69,-4.84,31996
1.57,-6.93,-7.95,-1.35,0.49,0.09,34.32,-29.67,-4.60,32030
4.21,-6.93,-5.12,-1.23,-0.18,-0.62,34.42,-29.63,-6.47,32064
3.65,-9.08,-4.12,-1.03,-0.67,-0.84,34.49,-28.92,-6.27,32098
3.57,-8.77,-4.85,-0.66,-1.31,-1.11,35.37,-28.43,-8.42,32132
5.89,-6.59,-6.54,-0.46,-1.48,-1.42,37.28,-26.43,-10.68,32166
4.74,-7.47,-5.56,-0.34,-1.66,-1.63,38.02,-24.25,-13.05,32201
3.25,-9.08,-3.96,-0.01,-2.15,-1.93,39.43,-21.54,-15.87,32235
3.05,-9.84,-2.58,0.23,-2.64,-2.34,39.97,-17.80,-19.56,32269
3.11,-9.41,-4.77,0.29,-2.46,-2.13,40.47,-14.72,-22.24,32303
5.13,-10.47,-4.05,0.24,-2.09,-2.01,40.27,-11.33,-25.40,32337
1.96,-8.85,-2.13,0.30,-1.97,-1.73,39.42,-8.78,-28.02,32372
6.32,-8.98,-5.33,0.20,-1.78,-1.56,37.71,-6.07,-29.95,32406
-25.81,2.73,18.04,0.31,-1.09,-1.00,36.16,-5.23,-31.66,32440
20.40,5.11,-4.15,0.10,-2.51,-2.22,33.76,-2.84,-31.83,32474
7.73,-2.12,-7.15,-0.28,-1.19,-1.61,31.41,-2.37,-32.93,32508
3.74,-9.64,-4.46,0.08,-1.84,-1.81,28.97,-2.24,-35.24,32542
6.42,-9.58,-3.27,0.30,-2.71,-2.64,25.97,-1.89,-37.47,32577
7.07,-6.03,-2.03,0.23,-2.71,-3.46,22.58,-1.21,-40.85,32611
5.41,-11.47,-2.21,0.84,-3.96,-3.39,19.42,-1.08,-43.99,32645
-0.47,-14.03,0.58,1.15,-4.50,-3.75,14.69,-1.53,-48.93,32679
-5.43,-20.90,4.53,1.67,-4.70,-2.80,10.20,-2.15,-52.16,32713
-1.62,-21.67,2.93,1.59,-3.91,-1.45,5.80,-7.31,-55.09,32748
-3.63,-17.39,-1.60,1.29,-2.28,-0.90,2.59,-5.12,-55.82,32782
3.22,-8.88,-3.29,1.02,-1.93,-1.08,0.60,-5.86,-56.84,32816
7.65,-3.71,-8.65,0.90,-2.13,-1.57,-3.05,-6.75,-57.00,32850
8.51,-4.17,-6.04,0.38,-1.73,-1.69,-5.52,-7.44,-57.12,32884
4.94,-9.76,-6.67,-0.37,-0.33,-1.58,-6.59,-6.96,-57.19,32918
2.17,-7.93,-4.55,-0.66,0.08,-1.75,-6.53,-6.42,-57.75,32953
0.84,-9.66,-1.87,-0.65,0.19,-1.14,-6.96,-5.01,-57.32,32987
-1.65,-9.66,-2.79,-0.42,-0.20,-1.09,-7.47,-4.71,-57.21,33021
-2.73,-9.60,-3.89,-0.15,-0.79,-1.09,-8.07,-4.40,-57.00,33055
-0.16,-8.52,-6.16,0.10,-1.25,-1.44,-9.43,-4.95,-56.50,33089
1.43,-7.18,-3.40,-0.09,-0.69,-1.21,-11.12,-4.91,-56.27,33124
-0.25,-10.38,-0.89,-0.05,-0.73,-1.01,-12.20,-4.88,-55.44,33158
-1.38,-12.08,-0.95,0.51,-2.16,-1.50,-14.54,-5.63,-55.09,33192
-2.95,-9.39,-2.34,0.81,-2.65,-1.44,-17.20,-6.47,-53.41,33226
-4.21,-10.35,-3.99,1.04,-2.66,-0.64,-19.51,-7.61,-52.27,33260
-1.16,-10.33,-6.05,0.97,-2.34,-0.42,-21.88,-8.68,-49.72,33294
3.24,-9.54,-7.30,0.59,-1.53,-0.47,-23.06,-9.47,-49.17,33329
8.17,-7.54,-6.20,0.02,-0.55,-0.72,-23.75,-10.41,-48.06,33363
6.74,-8.24,-5.30,-0.25,-0.34,-1.04,-24.23,-9.92,-47.57,33397
3.32,-8.24,-4.83,-0.09,-0.87,-1.33,-24.82,-10.39,-46.30,33431
0.28,-8.70,-5.78,0.08,-1.26,-1.67,-26.44,-11.15,-45.38,33465
-0.71,-6.92,-6.22,0.10,-1.08,-1.81,-28.12,-12.03,-43.67,33500
-3.05,-7.25,-3.18,0.11,-1.01,-1.68,-29.16,-13.42,-41.73,33534
-2.02,-9.45,-1.46,0.37,-1.29,-1.28,-29.90,-14.13,-39.83,33568
-2.91,-9.02,-1.77,0.66,-1.77,-0.99,-30.66,-16.03,-38.40,33602
-1.22,-9.70,-2.59,0.58,-1.45,-0.75,-31.85,-17.09,-35.71,33636
2.01,-9.64,-4.36,0.48,-1.29,-0.40,-32.33,-17.66,-34.13,33670
4.91,-7.25,-2.54,0.37,-1.23,-0.36,-32.55,-18.11,-31.96,33705
2.27,-9.09,-5.33,0.45,-1.59,-0.87,-33.38,-18.78,-30.14,33739
2.98,-9.07,-6.61,0.80,-2.77,-1.52,-33.50,-20.20,-27.21,33773
1.79,-9.71,-4.63,0.66,-2.52,-1.92,-33.56,-22.46,-22.27,33807
2.24,-12.27,-2.65,0.51,-1.98,-1.84,-32.59,-24.66,-19.66,33841
0.25,-10.05,-0.09,0.61,-2.11,-1.87,-32.27,-26.60,-16.31,33875
1.10,-8.83,-1.43,0.77,-2.01,-1.55,-30.91,-28.19,-13.31,33910
-3.84,-7.73,-2.38,1.02,-2.33,-1.37,-28.69,-29.36,-10.80,33944
-2.14,-9.82,-2.78,1.18,-2.42,-0.79,-26.70,-30.33,-7.38,33978
1.93,-9.04,-3.77,1.10,-2.21,-0.89,-24.22,-30.47,-4.33,34012
8.72,-8.35,-5.05,0.96,-2.05,-1.46,-22.38,-31.20,-2.29,34046
-1.99,-9.28,-1.59,1.11,-1.93,-1.08,-19.64,-30.80,0.56,34081
7.42,-8.51,-4.78,1.05,-1.59,-0.72,-17.52,-30.82,3.22,34115
0.71,-9.40,-6.34,0.74,-0.22,-0.18,-16.24,-30.42,3.83,34149
4.88,-6.82,-6.46,0.35,0.76,0.24,-16.78,-29.87,4.34,34183
3.12,-9.29,-2.90,-0.11,1.84,0.33,-17.67,-30.34,3.07,34217
1.01,-9.28,-2.39,-0.26,2.18,0.70,-20.71,-30.62,1.77,34251
0.28,-10.41,-2.80,-0.47,2.89,1.35,-23.97,-29.85,-1.48,34286
-1.66,-7.32,-5.79,-0.92,3.98,1.45,-28.09,-29.29,-5.55,34320
-1.73,-6.20,-6.11,-1.23,4.39,1.69,-31.47,-28.43,-10.03,34354
-1.40,-7.22,-4.17,-1.40,4.13,1.84,-34.80,-27.54,-15.77,34388
-1.10,-9.76,-4.62,-1.28,3.61,2.06,-37.02,-24.92,-21.73,34422
0.30,-8.80,-7.21,-1.37,3.48,1.63,-37.83,-23.08,-26.85,34457
0.14,-10.01,-7.02,-1.84,3.41,0.70,-38.26,-21.10,-31.94,34491
-0.22,-6.79,0.04,-2.14,3.32,0.70,-37.81,-19.96,-37.02,34525
-3.08,-12.68,-0.43,-1.23,1.62,1.05,-37.37,-18.49,-39.33,34559
1.24,-9.50,-7.34,-0.04,-0.81,0.04,-37.59,-17.47,-38.83,34593
2.07,-6.42,-10.16,-0.14,-0.65,-0.67,-37.75,-18.06,-37.75,34627
1.69,-5.58,-7.30,-0.26,-0.73,-1.13,-38.21,-19.85,-37.09,34662
1.43,-8.23,-4.80,0.18,-1.69,-1.40,-38.34,-21.54,-35.27,34696
3.05,-9.26,-3.02,0.43,-2.31,-1.89,-38.45,-24.39,-32.21,34730
1.88,-8.54,-2.75,0.37,-2.02,-1.58,-38.50,-27.10,-29.19,34764
-1.65,-10.30,-2.63,0.34,-1.46,-1.07,-37.90,-28.94,-26.26,34798
-3.21,-10.12,-3.09,0.87,-1.99,-0.67,-37.47,-30.55,-23.17,34833
-0.01,-11.57,-2.81,1.10,-2.00,0.08,-36.58,-30.63,-19.64,34867
3.55,-11.05,-4.80,0.98,-1.95,0.12,-36.90,-29.96,-17.36,34901
8.14,-7.49,-7.88,0.60,-1.61,-0.54,-35.27,-30.50,-13.91,34935
5.44,-7.44,-6.36,-0.08,-0.72,-1.12,-34.17,-31.73,-13.12,34969
5.62,-7.12,-3.96,-0.20,-0.72,-1.34,-33.19,-34.74,-11.85,35003
6.41,-7.17,-2.90,-0.40,-0.18,-0.76,-32.26,-36.23,-12.39,35038
3.24,-8.46,-4.11,-0.53,0.46,-0.22,-32.04,-37.04,-13.11,35072
-0.74,-8.80,-4.75,-0.29,-0.18,-0.58,-31.72,-38.54,-13.42,35106
0.49,-7.52,-5.78,-0.12,-0.50,-0.81,-30.42,-39.65,-12.41,35140
-1.91,-8.14,-6.52,-0.24,-0.04,-0.59,-29.57,-41.07,-12.77,35174
-3.24,-8.40,-3.03,-0.28,0.31,0.10,-28.94,-41.58,-13.77,35208
-2.75,-10.20,-1.15,-0.47,0.96,0.58,-30.33,-41.79,-14.76,35243
-4.07,-10.66,0.89,0.05,-0.39,0.20,-29.93,-41.35,-15.23,35277
-3.25,-11.14,-0.53,0.63,-1.56,-0.00,-29.19,-41.06,-13.27,35311
-3.76,-10.84,-4.02,1.11,-2.52,-0.01,-27.68,-41.03,-9.81,35345
0.64,-9.63,-6.37,1.18,-2.85,-0.25,-25.08,-40.32,-5.79,35379
1.56,-10.82,-8.24,1.01,-2.69,-1.00,-22.89,-40.51,-2.78,35414
4.48,-8.62,-4.44,0.99,-2.67,-1.79,-18.05,-41.33,0.47,35448
2.79,-7.23,-2.98,1.06,-2.60,-1.80,-13.83,-41.61,2.59,35482
4.30,-8.95,-0.42,1.19,-2.43,-1.16,-10.22,-40.75,4.97,35516
3.12,-11.40,-2.78,0.98,-1.53,-0.77,-6.55,-40.00,6.23,35550
3.06,-10.05,-5.08,0.49,-0.43,-1.13,-4.98,-39.42,6.68,35584
1.38,-6.56,-3.57,0.45,-0.07,-0.81,-3.46,-38.56,6.84,35619
4.28,-9.13,-2.11,0.65,-0.39,-0.69,-2.70,-37.93,7.38,35653
3.92,-10.11,-4.15,0.35,0.33,-0.81,-1.67,-37.31,7.51,35687
5.89,-6.88,-3.51,0.00,0.79,-1.30,-2.05,-37.50,6.81,35721
5.73,-5.75,-4.15,-0.10,0.96,-1.36,-1.29,-37.33,7.35,35755
6.16,-6.59,-3.33,-0.39,1.99,-0.47,-2.89,-36.99,6.85,35790
5.26,-8.51,-6.22,-0.84,3.36,0.49,-6.40,-37.24,4.56,35824
1.51,-7.67,-9.87,-1.37,4.98,1.13,-11.24,-37.83,1.74,35858
-1.54,-7.37,-12.55,-1.48,5.51,1.47,-18.39,-37.17,-3.04,35892
-3.61,-6.50,-12.06,-1.38,5.02,1.62,-22.62,-36.88,-7.94,35926
-3.59,-9.28,-10.11,-1.52,4.86,1.32,-27.17,-35.40,-14.62,35960
-6.48,-11.77,-8.67,-1.61,4.64,1.27,-30.66,-34.51,-19.96,35995
-5.57,-5.39,-9.92,-1.54,4.06,1.64,-31.15,-32.61,-25.55,36029
-3.33,-8.30,-9.57,-2.12,5.45,3.05,-32.94,-28.08,-33.43,36063
-2.56,-8.63,-9.77,-2.83,6.75,3.18,-32.14,-23.76,-41.51,36097
-2.99,-11.28,-8.75,-3.26,6.68,2.12,-28.87,-18.80,-48.58,36131
0.46,-5.27,-3.71,-3.09,4.53,0.28,-23.63,-14.40,-54.18,36166
-6.17,-6.13,-2.25,-2.35,3.30,0.68,-20.64,-12.19,-56.59,36200
-2.32,-11.86,-4.98,-0.86,-0.09,0.01,-20.17,-10.46,-56.12,36234
1.40,-9.08,-5.03,-0.71,-0.23,-0.17,-20.46,-10.10,-56.97,36268
-1.48,-9.76,-4.90,-0.80,0.34,-0.11,-20.04,-8.97,-56.64,36302
0.33,-7.46,-3.74,-0.26,-0.75,-0.34,-20.89,-8.75,-55.96,36336
0.00,-10.19,-3.64,0.32,-1.84,-0.75,-22.71,-9.37,-55.14,36371
2.66,-9.47,-5.99,0.69,-2.35,-1.12,-25.31,-10.83,-52.84,36405
3.47,-9.44,-6.77,0.70,-2.49,-1.68,-27.43,-12.91,-50.53,36439
6.49,-6.93,-5.91,0.82,-2.65,-1.97,-29.48,-15.59,-48.01,36473
4.79,-6.05,-5.62,0.80,-2.32,-1.68,-31.22,-18.39,-45.05,36507
3.54,-9.40,-4.37,0.68,-1.86,-1.33,-32.52,-19.98,-43.16,36541
4.46,-11.01,-4.54,0.67,-1.73,-1.23,-33.25,-21.53,-41.19,36576
7.35,-4.95,-6.44,0.19,-1.06,-1.28,-33.65,-23.25,-39.54,36610
5.92,-4.01,-6.17,-0.33,-0.11,-1.00,-33.70,-24.93,-39.07,36644
5.71,-5.34,-3.91,-0.37,-0.15,-0.84,-33.67,-25.80,-39.16,36678
0.87,-9.85,0.27,0.10,-1.43,-1.10,-34.01,-26.97,-37.31,36712
-0.98,-11.88,1.67,1.13,-3.60,-1.65,-34.36,-29.67,-33.56,36747
-1.02,-12.02,1.29,1.58,-4.40,-1.68,-34.10,-31.89,-27.65,36781
-5.77,-13.44,1.75,1.73,-4.01,-0.76,-32.72,-33.24,-21.28,36815
-5.64,-13.36,-1.14,1.83,-3.74,0.21,-31.56,-32.94,-15.80,36849
1.66,-11.15,-6.38,1.33,-2.30,0.57,-30.80,-32.10,-12.10,36883
6.33,-7.14,-11.90,0.51,-1.21,-0.16,-30.20,-31.94,-9.81,36917
8.96,-6.84,-9.92,-0.10,-0.17,-0.56,-29.57,-31.96,-10.14,36952
7.76,-8.01,-4.68,-0.71,0.48,-1.15,-29.07,-33.05,-10.79,36986
2.40,-6.74,-4.47,-0.74,0.70,-0.86,-28.82,-34.17,-11.87,37020
2.20,-5.67,-2.69,-0.44,0.19,-0.52,-27.89,-35.22,-12.82,37054
-0.55,-12.27,-1.07,0.18,-1.30,-0.55,-26.97,-35.36,-11.41,37088
-3.82,-10.69,-3.25,0.52,-1.77,-1.12,-25.48,-35.79,-9.44,37123
-3.70,-9.46,-4.61,0.67,-1.63,-0.96,-23.74,-36.06,-7.63,37157
0.07,-10.47,-3.29,0.35,-0.66,-0.38,-22.79,-35.95,-7.04,37191
-1.58,-10.96,-3.69,0.03,0.10,-0.61,-22.39,-36.47,-6.62,37225
0.68,-6.93,-3.81,-0.06,0.29,-0.71,-21.59,-37.01,-6.77,37259
0.97,-8.57,-2.17,0.31,-0.58,-0.58,-21.63,-36.95,-6.30,37293
0.69,-9.26,-1.90,0.48,-1.00,-0.84,-20.52,-37.33,-5.13,37328
1.68,-9.42,-3.64,0.74,-1.35,-0.70,-18.90,-36.95,-3.23,37362
2.82,-9.61,-4.86,0.60,-0.90,-0.39,-17.82,-36.66,-2.10,37396
3.98,-9.45,-6.72,0.42,-0.47,-0.63,-16.95,-36.86,-0.85,37430
6.21,-5.86,-5.79,0.23,-0.32,-1.09,-15.81,-37.24,-1.01,37464
6.52,-5.94,-4.08,-0.22,0.73,-0.87,-15.74,-37.81,-1.11,37499
2.24,-10.52,-2.46,-0.14,0.78,-0.42,-15.65,-38.45,-1.24,37533
1.22,-8.59,-2.33,0.11,0.28,-0.51,-15.77,-38.37,-2.41,37567
2.89,-6.61,-4.26,0.03,0.66,-0.29,-16.11,-38.25,-1.81,37601
-1.26,-9.55,-3.34,-0.03,1.00,0.12,-16.88,-37.83,-2.38,37635
2.33,-9.55,-2.80,0.04,0.59,-0.03,-17.51,-37.61,-2.25,37669
2.93,-9.34,-4.52,-0.15,1.08,-0.14,-19.03,-37.18,-2.53,37704
-0.24,-7.86,-0.85,-0.00,0.94,0.56,-19.96,-37.59,-2.79,37738
1.55,-10.82,-5.62,0.15,1.01,0.91,-21.06,-36.67,-4.25,37772
1.98,-7.75,-5.57,-0.16,1.82,0.65,-22.98,-36.44,-5.60,37806
3.26,-7.88,-3.43,-0.19,1.68,0.80,-24.52,-35.55,-6.90,37840
2.24,-7.95,-4.55,-0.19,1.78,1.02,-26.78,-35.00,-8.46,37875
2.32,-8.24,-6.60,-0.56,2.70,1.02,-29.00,-33.62,-11.06,37909
0.05,-7.58,-7.25,-0.78,3.12,1.24,-31.51,-33.16,-14.51,37943
1.55,-8.59,-8.14,-1.02,3.76,1.79,-34.23,-31.04,-20.55,37977
-1.90,-11.13,-8.74,-1.43,4.32,1.39,-35.68,-29.55,-25.24,38011
2.87,-8.40,-1.82,-1.31,2.90,0.86,-35.55,-28.09,-31.06,38045
4.20,-9.28,-1.47,-1.23,2.56,0.35,-35.49,-27.51,-34.87,38080
5.28,-6.50,-1.23,-0.84,0.76,-0.91,-34.99,-28.05,-36.67,38114
0.01,-6.82,-2.45,-0.63,0.43,-0.81,-34.58,-28.81,-37.52,38148
0.85,-11.08,-1.76,-0.47,0.18,-0.51,-34.65,-29.66,-37.74,38182
-4.38,-12.21,0.16,-0.63,0.90,-0.06,-34.57,-29.77,-39.35,38216
-6.43,-10.19,0.51,-0.27,0.64,0.97,-34.87,-28.27,-40.69,38250
-2.15,-12.81,-0.87,0.30,-0.14,1.61,-35.22,-26.62,-40.31,38285
-1.35,-10.16,-7.62,-0.06,0.65,1.28,-36.12,-24.55,-40.84,38319
0.91,-3.62,-2.93,-0.66,1.70,1.38,-35.78,-22.41,-42.14,38353
1.56,-10.37,2.31,-0.06,0.31,2.06,-35.84,-19.51,-43.36,38387
2.93,-18.20,-5.19,0.25,0.19,0.67,-35.55,-18.44,-44.14,38421
4.30,-7.82,-8.74,0.48,-0.83,-0.56,-36.38,-18.91,-43.39,38456
7.64,1.31,-6.27,0.36,-0.86,-0.28,-36.76,-19.67,-41.57,38490
7.16,-9.51,-5.76,-0.06,-0.24,0.11,-36.35,-20.05,-41.26,38524
3.88,-12.83,-5.28,-0.74,0.58,-0.70,-36.55,-20.07,-41.83,38558
0.61,-6.52,-3.74,-1.07,0.88,-0.33,-36.00,-20.72,-42.60,38592
1.84,-7.36,-1.79,-1.07,0.79,0.18,-35.91,-20.36,-43.39,38626
3.91,-9.97,-3.80,-0.97,0.56,0.21,-35.90,-19.41,-45.25,38661
3.16,-7.02,-6.86,-0.97,0.35,-0.26,-36.07,-19.07,-45.18,38695
3.40,-4.43,-7.61,-1.23,0.63,-0.34,-35.19,-18.74,-46.68,38729
-0.28,-7.63,-3.13,-1.18,0.35,-0.35,-35.03,-18.47,-47.88,38763
-2.17,-10.16,-2.73,-0.84,-0.26,-0.64,-35.33,-18.34,-47.46,38797
-2.69,-10.28,-3.35,0.06,-1.75,-0.57,-36.10,-19.31,-45.50,38832
-0.34,-12.48,-1.56,0.70,-2.33,0.08,-37.30,-20.08,-42.98,38866
4.46,-11.46,-1.43,0.69,-2.41,0.22,-38.09,-20.10,-39.68,38900
6.95,-8.72,-6.81,0.37,-1.75,0.01,-39.64,-20.24,-36.26,38934
10.66,-4.85,-8.20,-0.34,-0.77,-0.93,-39.73,-21.13,-35.63,38968
10.73,-3.88,-3.69,-0.66,-0.65,-1.33,-39.62,-23.06,-34.74,39002
-1.09,-8.75,-1.94,-0.27,-1.45,-1.78,-39.37,-25.78,-33.32,39037
4.78,-6.13,0.02,1.19,-4.71,-3.17,-38.54,-29.28,-27.96,39071
-1.53,-13.05,-0.85,1.53,-4.94,-3.01,-36.28,-33.53,-20.59,39105
-3.96,-15.83,-0.73,2.31,-6.02,-3.25,-32.55,-36.61,-12.48,39139
2.05,-13.35,-0.08,2.80,-6.25,-3.19,-25.14,-38.94,-3.13,39173
5.33,-8.36,-4.40,2.30,-3.82,-2.19,-19.54,-38.95,2.05,39208
3.49,-6.43,-0.86,1.51,-1.75,-1.55,-16.30,-37.78,4.11,39242
4.62,-8.07,-0.49,1.16,-1.01,-1.27,-13.90,-37.26,6.46,39276
2.19,-6.47,-3.72,0.68,0.04,-0.83,-12.45,-36.99,7.32,39310
3.63,-9.16,-4.87,0.22,0.91,-0.37,-13.07,-36.74,6.71,39344
1.87,-9.57,-4.79,-0.14,1.61,-0.50,-14.05,-37.66,5.64,39378
2.54,-7.58,-3.73,-0.37,2.11,-0.49,-16.16,-38.50,4.41,39413
4.51,-8.36,-3.26,-0.38,2.08,-0.12,-18.28,-38.42,2.91,39447
1.75,-10.06,-4.63,-0.26,2.14,0.29,-20.24,-38.44,-0.06,39481
4.70,-8.86,-5.89,-0.34,2.47,0.14,-22.52,-38.06,-3.29,39515
2.65,-6.53,-6.16,-0.61,2.81,-0.16,-24.52,-38.57,-6.02,39549
3.76,-6.94,-4.93,-0.83,2.99,0.10,-26.19,-39.52,-9.30,39583
0.53,-9.68,-7.07,-0.67,2.84,0.59,-28.27,-38.69,-13.05,39618
3.19,-7.14,-2.66,-1.03,3.49,0.56,-29.87,-38.61,-17.47,39652
-1.01,-9.96,-6.47,-1.23,3.84,0.89,-31.50,-37.33,-24.16,39686
-1.91,-11.27,-6.69,-1.27,3.47,0.95,-32.48,-36.04,-27.58,39720
-0.29,-7.74,-4.54,-1.51,3.70,1.19,-33.05,-34.33,-32.49,39754
0.16,-8.09,-6.39,-2.25,4.74,2.08,-32.61,-30.63,-39.29,39789
3.05,-9.28,-12.75,-2.92,5.93,2.41,-31.22,-26.38,-46.26,39823
2.03,-7.71,-9.65,-3.79,6.22,1.76,-27.57,-20.75,-54.30,39857
1.37,-9.33,-6.19,-3.83,5.12,0.95,-21.57,-16.38,-59.19,39891
0.34,-5.77,-5.32,-3.42,3.73,0.24,-17.44,-12.58,-61.55,39925
-2.71,-8.28,-4.85,-2.36,1.97,0.10,-14.16,-8.37,-62.19,39959
-2.36,-9.52,-6.87,-0.96,-0.19,-0.36,-13.67,-7.25,-61.93,39994
0.27,-8.93,-5.41,-0.25,-1.32,-0.76,-18.50,-6.61,-61.25,40028
0.05,-7.64,-4.06,0.39,-2.29,-1.05,-18.46,-7.89,-60.03,40062
-1.48,-10.13,-4.19,0.93,-3.39,-1.36,-21.91,-9.54,-57.29,40096
1.28,-9.81,-4.45,1.20,-3.39,-1.18,-25.65,-12.44,-55.00,40130
4.17,-9.87,-4.83,0.79,-2.11,-0.67,-28.59,-14.13,-53.16,40165
3.19,-7.53,-4.41,0.33,-1.15,-0.42,-29.47,-15.13,-51.77,40199
3.93,-7.36,-4.33,0.00,-0.43,0.05,-30.08,-14.76,-51.27,40233
5.10,-6.09,-3.46,0.17,-0.87,0.33,-30.87,-14.83,-50.53,40267
4.88,-8.89,-6.30,0.58,-1.74,0.09,-32.11,-15.29,-48.45,40301
5.14,-8.24,-8.20,0.98,-2.89,-0.82,-34.01,-16.65,-45.10,40335
5.39,-7.69,-7.22,0.62,-2.48,-1.56,-35.62,-19.03,-37.81,40370
7.14,-8.37,-3.91,0.14,-1.59,-1.39,-35.63,-20.91,-38.50,40404
2.94,-9.84,-1.37,-0.14,-1.18,-1.33,-35.52,-22.76,-37.58,40438
6.82,-7.99,-1.97,-0.14,-1.50,-1.74,-35.33,-24.71,-35.47,40472
4.85,-6.37,-4.38,-0.13,-1.51,-2.04,-34.83,-27.39,-33.95,40506
1.36,-5.49,-3.50,0.12,-1.91,-1.86,-34.49,-29.35,-31.06,40541
-0.59,-11.95,-0.38,0.29,-1.94,-1.68,-33.28,-30.97,-27.84,40575
-3.73,-15.45,3.42,0.92,-2.84,-1.36,-32.26,-32.56,-24.76,40609
-7.56,-17.47,6.56,1.72,-3.61,-0.61,-30.99,-33.62,-19.07,40643
-4.98,-17.44,1.29,2.10,-3.80,-0.01,-29.33,-32.58,-13.97,40677
1.01,-11.14,-14.66,1.74,-2.34,0.01,-28.35,-31.66,-10.22,40711
13.32,-1.44,-10.00,0.82,-1.09,-1.17,-27.26,-31.31,-7.75,40746
14.36,-3.28,-8.08,-0.37,0.87,-0.95,-27.02,-32.08,-7.97,40780
3.33,-8.03,-4.49,-1.12,2.18,-0.99,-27.81,-33.66,-10.63,40814
-1.17,-8.93,-1.62,-0.41,0.61,-0.96,-28.21,-34.26,-11.46,40848
1.81,-12.36,-1.56,0.92,-1.82,-1.36,-26.73,-34.99,-8.64,40882
4.77,-6.80,-3.77,1.01,-1.49,-1.31,-24.52,-35.85,-5.48,40916
0.51,-7.60,-2.96,0.64,-0.29,-0.49,-24.04,-35.76,-4.94,40951
-1.62,-10.21,-4.95,0.32,0.86,-0.08,-24.52,-35.44,-5.14,40985
0.13,-7.34,-4.03,0.21,0.86,-0.54,-25.14,-36.10,-5.98,41019
-0.68,-8.47,-2.51,0.24,0.61,-0.71,-25.50,-36.61,-6.18,41053
3.47,-8.73,-2.35,0.05,0.66,-0.87,-25.07,-38.10,-5.77,41087
4.84,-7.93,-4.26,-0.14,1.12,-0.91,-25.72,-38.51,-7.04,41122
4.38,-7.35,-4.25,-0.44,1.75,-0.69,-25.91,-40.06,-8.65,41156
3.61,-8.68,-6.48,-0.52,1.97,-0.08,-27.24,-40.37,-11.36,41190
6.41,-4.89,-5.12,-0.68,2.42,0.27,-28.24,-40.94,-14.13,41224
2.31,-5.71,-6.10,-0.95,3.02,1.12,-30.23,-40.87,-18.59,41258
-0.34,-5.08,-12.40,-1.45,4.32,2.21,-32.15,-39.58,-23.41,41292
-0.91,-7.37,-12.37,-1.78,5.02,2.80,-34.16,-36.50,-30.52,41327
-1.94,-8.41,-8.20,-1.75,4.43,2.31,-34.65,-33.02,-38.37,41361
0.84,-8.97,-4.94,-1.68,3.72,1.85,-33.72,-29.98,-44.36,41395
-1.18,-9.56,-6.21,-1.86,3.61,1.28,-31.95,-27.23,-49.39,41429
-0.91,-10.41,-10.05,-2.28,3.65,0.60,-28.88,-24.36,-54.12,41463
-2.24,-7.43,-6.82,-2.42,3.88,1.93,-25.65,-20.94,-57.41,41498
-4.20,-11.11,-4.04,-2.31,4.00,2.86,-20.64,-15.68,-61.05,41532
-5.51,-9.94,-6.41,-2.07,3.08,1.35,-16.91,-12.42,-62.95,41566
1.14,-5.83,-4.17,-1.85,1.93,0.63,-14.12,-9.47,-63.81,41600
-0.67,-10.31,-2.42,-1.44,1.24,0.81,-12.01,-7.22,-64.06,41634
3.95,-10.64,-6.47,-0.56,-0.77,-0.61,-12.15,-6.66,-63.83,41668
7.52,-4.59,-6.78,-0.35,-1.25,-1.36,-14.21,-5.99,-62.69,41703
4.62,-3.86,-5.09,-0.37,-0.95,-1.22,-15.61,-6.09,-61.75,41737
1.61,-10.52,-4.54,-0.08,-1.71,-1.45,-17.77,-7.13,-60.82,41771
4.35,-8.41,-5.11,0.37,-2.39,-1.89,-21.59,-8.97,-59.11,41805
3.21,-5.64,-3.96,0.34,-2.32,-2.06,-24.23,-10.98,-57.61,41839
4.89,-7.21,-4.36,0.52,-2.63,-1.95,-27.45,-13.17,-54.56,41874
7.94,-7.93,-3.87,0.61,-2.75,-1.99,-29.87,-15.76,-52.21,41908
2.95,-11.33,-2.15,0.98,-3.51,-1.93,-31.99,-18.27,-49.15,41942
5.75,-11.72,-1.18,1.63,-4.86,-2.36,-34.89,-22.19,-41.87,41976
3.57,-11.25,-1.27,2.29,-5.78,-2.42,-36.04,-25.43,-35.17,42010
-2.44,-15.26,-3.07,2.19,-4.98,-1.30,-35.93,-27.83,-23.82,42044
1.73,-11.02,-2.32,1.67,-3.94,-0.78,-35.05,-29.03,-19.50,42079
3.65,-9.40,-2.80,0.89,-1.88,-0.22,-34.08,-29.38,-16.59,42113
4.31,-9.65,-6.08,0.79,-2.05,-0.75,-32.48,-29.98,-13.49,42147
7.21,-8.46,-5.30,0.66,-2.69,-1.95,-30.59,-31.72,-10.38,42181
0.16,-10.40,-3.50,0.44,-2.07,-2.26,-28.15,-33.51,-7.31,42215
-1.77,-12.96,-0.32,0.68,-2.24,-2.23,-24.77,-34.98,-4.08,42250
2.18,-11.43,1.42,0.87,-2.44,-2.41,-21.44,-36.06,-1.72,42284
1.41,-6.17,-2.58,1.04,-1.67,-2.24,-17.33,-37.01,0.85,42318
0.94,-7.40,-3.11,1.17,-1.76,-1.58,-15.01,-36.83,2.86,42352
0.35,-10.55,-2.41,1.07,-1.20,-1.00,-12.77,-36.19,3.32,42386
-0.12,-7.97,-0.63,0.82,-0.54,-0.94,-11.18,-35.97,4.57,42420
1.25,-8.07,-0.47,0.54,0.43,-0.12,-11.15,-35.46,5.28,42455
0.33,-8.95,-3.98,0.44,1.21,0.56,-12.57,-34.98,5.55,42489
2.17,-10.31,-4.04,0.27,1.46,0.50,-14.21,-33.98,4.09,42523
3.56,-9.56,-4.10,0.00,1.83,0.12,-16.90,-33.89,3.42,42557
2.71,-8.60,-4.70,0.06,1.17,-0.53,-18.39,-33.76,2.51,42591
1.80,-6.67,-5.44,0.14,0.72,-0.64,-19.09,-33.81,1.83,42625
1.99,-8.94,-4.24,-0.02,1.12,-0.27,-19.37,-34.16,1.49,42660
3.80,-8.91,-1.63,-0.18,1.35,-0.14,-20.40,-34.86,0.58,42694
5.28,-8.28,-2.22,-0.29,1.64,-0.12,-21.53,-35.22,-1.72,42728
4.63,-9.06,-3.59,-0.53,2.40,-0.03,-23.71,-35.69,-4.49,42762
3.68,-7.42,-6.36,-0.63,2.72,0.12,-25.33,-35.68,-7.21,42796
5.79,-7.81,-7.79,-1.21,3.89,0.59,-27.51,-35.81,-10.87,42831
0.59,-9.09,-8.18,-1.87,5.02,1.25,-30.56,-35.25,-17.89,42865
0.21,-11.22,-8.34,-2.10,5.32,1.67,-32.65,-33.32,-25.69,42899
-3.18,-8.77,-8.26,-2.19,5.58,1.95,-37.31,-29.80,-34.01,42933
-2.03,-5.32,-9.81,-2.50,5.41,1.99,-33.13,-26.47,-41.52,42967
-4.19,-6.86,-9.37,-2.80,5.56,1.79,-30.93,-22.80,-48.25,43001
-4.25,-7.26,-6.74,-2.47,4.18,1.58,-27.16,-18.36,-52.75,43036
-5.36,-10.11,-8.07,-2.23,3.14,1.29,-24.76,-15.04,-55.73,43070
-3.97,-11.56,-7.79,-2.01,2.37,0.79,-22.19,-12.25,-58.70,43104
-0.80,-9.06,-4.30,-1.49,0.93,-0.16,-20.58,-9.72,-58.71,43138
0.00,-8.37,-3.22,-1.18,0.27,-0.56,-20.05,-9.21,-58.92,43172
2.14,-7.70,-3.59,-0.70,-0.57,-0.65,-21.13,-8.87,-57.63,43207
1.54,-10.65,-4.52,0.00,-1.83,-0.99,-22.68,-9.22,-56.93,43241
4.31,-9.60,-5.37,0.34,-2.37,-1.42,-25.72,-10.01,-54.15,43275
3.32,-6.35,-7.76,0.16,-1.93,-1.80,-28.18,-12.12,-52.62,43309
8.10,-0.81,-4.98,-0.48,-0.74,-1.41,-29.38,-13.26,-51.74,43343
6.60,-5.29,-2.54,-0.76,-0.29,-1.13,-29.74,-14.18,-50.13,43377
4.39,-9.46,-3.31,-0.22,-1.55,-1.78,-30.87,-15.62,-49.21,43412
4.69,-7.01,-4.44,0.35,-2.33,-2.12,-32.56,-17.64,-46.39,43446
3.98,-7.03,-3.99,0.80,-2.81,-2.16,-34.35,-20.91,-41.79,43480
1.82,-10.46,-0.56,1.26,-3.19,-1.55,-36.03,-23.71,-38.22,43514
-0.76,-15.31,3.87,1.75,-4.05,-1.47,-37.26,-26.48,-31.38,43548
-2.50,-15.94,2.38,2.46,-5.01,-1.40,-37.08,-28.85,-24.76,43583
-3.21,-13.48,-2.54,2.55,-4.41,-0.53,-35.87,-29.57,-18.08,43617
0.64,-11.40,-5.55,2.17,-3.22,0.29,-34.60,-28.66,-11.08,43651
7.35,-8.96,-6.66,1.24,-1.89,0.18,-33.53,-27.96,-8.71,43685
5.48,-8.99,-7.61,0.49,-0.40,-0.83,-33.02,-27.97,-7.48,43719
6.34,-8.16,-7.33,-0.15,-0.02,-1.33,-31.98,-29.30,-6.59,43753
2.64,-7.87,-5.71,-0.46,0.86,-1.05,-32.42,-31.69,-7.78,43788
4.98,-5.94,-5.50,-0.51,0.50,-1.09,-32.08,-34.00,-8.23,43822
1.84,-7.25,-4.69,-0.41,0.34,-1.03,-32.04,-35.44,-10.29,43856
0.37,-8.44,-4.69,-0.01,-0.38,-1.19,-31.15,-37.26,-9.70,43890
-0.68,-8.87,-0.42,0.22,-0.71,-0.98,-29.66,-39.61,-8.80,43924
-0.35,-10.17,-1.33,0.46,-0.76,-0.81,-28.84,-40.69,-7.12,43958
-0.34,-8.91,-2.98,0.45,-0.45,-0.78,-27.43,-41.36,-5.90,43993
3.05,-8.02,-3.15,0.37,-0.22,-0.65,-26.00,-41.98,-5.98,44027
2.69,-8.66,-1.63,0.25,0.29,-0.17,-25.64,-43.38,-5.61,44061
2.44,-10.67,-2.41,0.55,-0.19,-0.13,-25.17,-42.93,-5.61,44095
2.98,-10.50,-3.78,0.88,-0.46,-0.32,-23.88,-42.69,-4.36,44129
2.51,-7.97,-4.59,0.55,0.30,-0.33,-23.50,-43.06,-3.74,44164
1.69,-7.93,-5.44,0.25,0.94,-0.11,-23.59,-43.07,-4.94,44198
2.40,-8.58,-3.59,-0.19,1.77,0.19,-24.44,-42.53,-6.31,44232
2.57,-7.95,-4.58,-0.40,2.19,0.48,-26.03,-42.62,-10.10,44266
1.15,-7.84,-5.15,-0.58,2.60,0.83,-28.03,-41.63,-11.79,44300
0.80,-7.80,-6.80,-0.82,3.00,1.39,-30.18,-40.53,-16.50,44334
-0.06,-8.91,-5.50,-0.86,3.03,1.48,-32.34,-38.67,-21.46,44369
0.01,-8.58,-4.68,-0.91,2.78,1.20,-33.15,-37.62,-25.93,44403
-2.32,-9.42,-5.31,-0.78,2.26,1.00,-33.88,-35.88,-29.36,44437
-1.27,-9.51,-3.79,-0.67,1.86,0.84,-33.84,-35.02,-31.86,44471
1.10,-8.39,-3.05,-0.66,1.59,0.95,-33.94,-33.35,-33.69,44505
-0.21,-9.85,-5.47,-0.83,1.69,0.95,-34.04,-32.20,-35.88,44540
1.73,-9.67,-5.43,-1.06,2.06,0.88,-33.38,-30.14,-38.85,44574
1.58,-8.33,-4.56,-1.23,2.02,0.73,-32.96,-28.68,-42.18,44608
2.43,-7.40,-3.15,-1.19,1.69,0.58,-31.54,-27.42,-43.72,44642
2.16,-9.28,-4.34,-1.10,1.43,0.52,-31.51,-25.91,-46.08,44676
3.74,-8.13,-6.90,-1.08,1.20,0.19,-30.53,-24.77,-48.28,44710
2.41,-5.85,-7.02,-1.37,1.55,-0.03,-29.32,-23.94,-49.14,44745
3.84,-6.45,-5.46,-1.74,1.84,-0.07,-27.70,-22.39,-50.85,44779
3.71,-7.32,-2.62,-1.51,1.27,-0.31,-25.83,-21.29,-53.01,44813
2.60,-6.99,-2.10,-0.68,-0.26,-0.63,-25.61,-20.65,-52.92,44847
-0.24,-10.69,-4.93,0.37,-2.00,-1.09,-26.66,-21.95,-50.44,44881
2.19,-10.36,-3.60,0.70,-2.44,-0.94,-28.15,-23.43,-48.63,44916
-0.47,-10.95,-2.91,0.57,-1.85,-0.52,-29.70,-24.12,-45.54,44950
-0.62,-10.73,-3.17,0.76,-1.91,0.12,-30.81,-25.01,-43.72,44984
1.13,-9.89,-5.69,0.60,-1.45,0.31,-31.32,-24.52,-41.26,45018
3.65,-7.98,-7.05,0.06,-0.37,0.29,-32.39,-24.47,-39.39,45052
3.32,-8.90,-4.55,-0.49,0.50,0.08,-32.21,-24.00,-40.78,45086
3.55,-8.36,-2.60,-0.17,-0.52,-0.37,-32.37,-24.23,-40.19,45121
2.42,-8.51,-4.19,0.51,-2.02,-1.06,-32.68,-25.23,-37.11,45155
3.13,-7.48,-7.12,0.45,-1.99,-1.48,-32.48,-27.00,-34.33,45189
2.37,-8.79,-6.59,0.18,-1.36,-1.38,-32.53,-28.54,-31.91,45223
4.10,-8.22,-3.54,0.10,-1.18,-1.42,-31.63,-29.77,-31.03,45257
3.63,-8.44,-2.16,0.40,-1.84,-1.57,-31.42,-31.31,-28.60,45291
3.70,-9.73,-0.58,0.71,-2.25,-1.68,-30.09,-32.84,-25.48,45326
5.46,-8.53,-1.18,1.13,-3.23,-2.18,-28.40,-34.29,-21.37,45360
0.82,-9.46,-2.01,1.27,-3.47,-2.27,-26.37,-36.54,-17.55,45394
0.19,-10.97,-0.39,1.32,-3.29,-1.92,-23.06,-37.83,-12.29,45428
-0.96,-12.92,1.73,1.27,-2.75,-1.31,-20.58,-38.22,-9.19,45462
0.10,-12.22,1.61,1.31,-2.54,-1.15,-17.47,-38.09,-4.63,45497
-1.43,-12.14,-1.64,1.26,-1.85,-0.98,-15.57,-37.58,-3.35,45531
0.01,-9.19,-3.71,1.08,-1.29,-0.87,-13.62,-36.73,-0.96,45565
2.26,-7.28,-4.25,0.94,-1.01,-0.63,-12.07,-36.55,0.54,45599
1.59,-8.52,-3.74,0.70,-0.37,-0.12,-11.47,-35.40,2.06,45633
1.67,-10.00,-3.76,0.48,0.01,-0.21,-11.22,-34.38,2.19,45667
2.38,-9.64,-4.63,0.39,0.05,-0.49,-11.11,-34.42,3.14,45702
2.96,-8.39,-5.21,0.28,0.12,-0.68,-10.71,-33.65,3.22,45736
3.98,-6.11,-5.61,0.01,0.46,-0.80,-11.06,-34.20,3.54,45770
1.99,-7.74,-4.24,-0.45,1.64,-0.19,-12.31,-34.90,2.40,45804
3.99,-7.24,-4.34,-0.68,1.54,-0.20,-13.30,-35.68,2.19,45838
5.80,-6.83,-3.90,-0.77,1.73,0.04,-15.58,-35.88,0.63,45873
1.49,-8.67,-4.29,-0.70,1.89,0.26,-17.87,-36.28,-0.95,45907
3.29,-6.77,-4.57,-0.50,1.33,-0.28,-19.67,-37.24,-2.54,45941
0.06,-5.23,-1.79,-0.39,0.98,-0.35,-20.14,-37.93,-4.22,45975
-3.28,-12.34,-1.75,-0.11,0.44,0.63,-20.83,-37.65,-3.45,46009
0.55,-13.97,-1.65,-0.02,0.61,0.87,-21.75,-37.31,-4.62,46043
1.21,-11.44,-2.44,-0.12,1.03,0.72,-23.19,-36.42,-5.58,46078
5.82,-7.04,-6.90,-0.20,0.84,0.34,-24.60,-36.70,-6.47,46112
9.29,-1.15,-7.81,-0.60,1.23,-0.13,-25.17,-36.64,-8.39,46146
3.44,1.01,-1.92,-1.04,1.56,0.14,-25.96,-37.14,-10.11,46180
-4.78,-22.09,-6.54,-0.55,0.23,0.00,-26.66,-37.52,-12.47,46214
-1.45,-19.47,-3.77,-0.27,0.38,-0.29,-26.05,-38.35,-12.28,46249
-0.81,-10.54,-0.74,-0.90,1.87,0.13,-26.73,-38.41,-14.51,46283
-11.05,-2.26,5.70,-0.69,1.85,1.67,-28.35,-36.93,-17.54,46317
-5.01,-10.74,1.85,0.54,0.43,2.07,-30.11,-35.30,-18.23,46351
2.14,-9.83,-0.68,0.97,0.67,2.77,-32.61,-30.96,-17.85,46385
1.35,-8.96,-7.51,1.05,1.00,3.35,-34.86,-27.35,-17.83,46419
6.20,-9.80,-8.82,0.74,0.28,2.15,-35.56,-23.87,-17.93,46454
11.27,-7.29,-7.64,-0.10,0.83,0.72,-36.29,-21.82,-18.96,46488
5.07,-8.20,-7.51,-0.77,1.91,0.03,-36.03,-22.17,-20.75,46522
1.15,-11.60,-4.77,-1.02,1.45,-0.57,-36.22,-23.15,-23.38,46556
0.55,-10.42,-2.56,-0.66,0.48,-0.77,-35.82,-23.87,-24.93,46590
2.46,-7.30,-3.21,-0.29,0.03,-0.82,-35.47,-25.02,-24.99,46625
4.54,-6.14,-2.21,-0.04,-0.52,-0.93,-34.65,-26.26,-24.04,46659
1.05,-9.68,-2.69,-0.02,-0.52,-0.96,-34.27,-27.39,-24.01,46693
1.60,-10.67,-4.41,0.05,-0.56,-1.04,-32.97,-28.56,-23.06,46727
3.66,-10.16,-4.26,-0.22,0.16,-0.84,-31.70,-29.44,-23.00,46761
5.27,-6.41,-4.88,-0.56,0.56,-0.95,-31.63,-30.39,-23.34,46795
3.90,-4.14,-3.22,-0.70,0.70,-1.19,-30.94,-31.56,-24.61,46830
2.94,-3.94,-2.21,-0.70,0.23,-1.40,-29.92,-32.56,-25.26,46864
2.32,-7.60,-1.77,-0.51,-0.05,-1.29,-28.91,-33.63,-25.59,46898
1.09,-10.97,-3.15,-0.14,-0.68,-1.17,-28.54,-34.93,-24.50,46932
0.47,-9.52,-2.10,0.41,-0.87,-0.73,-28.25,-35.49,-23.50,46966
-1.15,-10.56,-1.50,0.70,-0.99,-0.16,-28.00,-35.49,-22.04,47000
9.03,-8.89,-10.18,0.36,-0.79,-0.06,-28.46,-35.06,-19.73,47035
2.54,-8.92,-1.30,-0.21,0.73,-0.06,-28.63,-35.75,-20.64,47069
3.90,-9.05,-2.48,-0.13,0.30,0.17,-29.60,-35.14,-20.40,47103
1.84,-9.44,-2.44,-0.29,0.63,0.14,-30.56,-35.18,-22.29,47137
-0.61,-9.36,-4.41,-0.27,0.66,0.12,-31.22,-34.95,-22.99,47171
-0.07,-10.56,-4.40,-0.03,0.44,0.38,-32.26,-34.52,-23.44,47206
1.83,-9.60,-3.34,0.24,0.12,0.47,-32.61,-34.00,-23.59,47240
4.65,-8.71,-2.84,0.40,0.03,0.44,-33.44,-33.43,-22.71,47274
3.54,-8.24,-3.72,0.48,0.03,0.45,-33.94,-33.40,-22.35,47308
4.55,-7.04,-3.16,0.50,0.31,0.47,-34.61,-32.74,-21.85,47342
0.92,-7.81,-3.20,0.32,1.21,0.63,-35.50,-32.10,-22.30,47376
3.62,-7.44,-4.14,0.32,0.56,-0.04,-35.74,-32.11,-23.09,47411
1.74,-9.28,-4.41,0.27,0.62,-0.01,-36.13,-31.88,-24.70,47445
2.02,-9.54,-2.95,0.28,0.59,-0.06,-36.00,-32.05,-24.55,47479
0.47,-10.24,-2.05,0.41,0.55,-0.05,-36.41,-31.92,-24.67,47513
-2.03,-12.40,-0.96,0.60,0.51,0.13,-36.60,-31.89,-24.86,47547
-3.39,-13.67,1.39,1.09,0.32,0.25,-36.96,-32.04,-24.71,47582
-3.18,-14.97,1.60,1.78,0.42,0.56,-36.71,-31.37,-24.38,47616
-2.54,-19.25,1.00,2.38,0.43,0.91,-36.96,-30.17,-23.57,47650
-8.38,-18.12,-3.58,3.15,-1.16,-0.23,-37.28,-28.82,-20.89,47684
9.06,-12.04,-21.73,3.35,-4.03,-2.58,-34.57,-31.22,-13.64,47718
8.55,-15.28,-8.63,2.76,-3.35,-4.82,-29.48,-35.11,-8.10,47752
8.52,-8.78,-9.83,3.04,-3.28,-5.53,-19.51,-38.13,-1.53,47787
9.46,-7.38,-8.44,2.51,-1.74,-5.23,-15.17,-40.03,1.32,47821
5.05,-4.51,-3.84,2.39,-0.20,-4.35,-10.71,-40.06,2.94,47855
2.41,-0.84,-1.23,2.12,0.05,-3.15,-6.87,-39.30,5.14,47889
1.36,0.40,-0.58,1.92,-0.08,-2.16,-4.17,-37.90,7.31,47923
-0.75,3.42,0.54,1.96,-0.69,-0.72,-2.69,-36.14,8.96,47958
-1.29,5.32,2.51,1.61,-0.68,1.02,-2.13,-33.85,10.55,47992
-1.42,3.81,2.12,1.37,-0.79,2.42,-2.32,-31.82,11.98,48026
0.81,0.87,2.37,1.11,-1.03,4.07,-2.98,-29.92,13.37,48060
1.31,-1.64,1.74,0.94,-1.35,5.23,-4.25,-27.76,13.24,48094
5.21,-6.50,-0.51,0.77,-1.99,6.66,-3.98,-25.86,14.41,48128
7.34,-21.06,-4.91,0.68,-2.33,8.06,-3.57,-23.53,14.92,48163
16.93,-32.62,-3.57,0.39,-4.43,6.88,-0.85,-21.89,15.93,48197
7.70,-18.35,-6.80,0.70,-3.77,2.63,3.24,-20.94,16.02,48231
17.61,-14.86,-8.11,0.13,-1.57,-2.99,7.23,-19.38,16.72,48265
9.16,-15.56,-8.24,-0.08,0.51,-4.81,7.95,-19.12,16.30,48299
13.28,-11.14,-1.91,-0.36,1.74,-5.14,7.89,-19.01,16.72,48333
6.45,-5.29,2.01,-0.23,1.59,-4.83,6.65,-18.31,16.50,48368
3.46,-1.70,3.23,-0.00,0.86,-3.99,5.48,-17.55,17.03,48402
2.94,-0.33,4.17,0.02,0.33,-3.06,5.44,-17.28,16.25,48436
2.33,-0.61,3.98,0.02,0.40,-2.22,5.32,-17.09,15.51,48470
2.13,-1.38,3.66,0.07,0.50,-1.20,5.20,-16.54,15.24,48504
2.25,-1.79,3.01,0.19,0.46,-0.23,4.97,-16.52,15.78,48539
2.75,-2.43,1.87,0.36,0.31,0.59,4.66,-16.15,15.33,48573
2.71,-2.51,1.11,0.67,0.04,1.73,4.57,-15.55,15.35,48607
2.48,-4.95,-0.47,0.65,0.00,2.72,4.75,-14.86,15.64,48641
1.30,-8.25,-0.93,0.50,-0.58,2.99,5.19,-14.48,14.85,48675
1.58,-11.97,-2.35,0.72,-2.34,2.94,8.14,-14.32,15.55,48709
2.35,-12.88,-4.15,0.88,-3.76,2.73,13.11,-14.16,14.44,48744
2.39,-13.62,-5.60,0.96,-4.53,2.52,19.66,-14.86,11.43,48778
3.08,-13.59,-7.10,0.94,-4.38,2.29,24.69,-16.28,8.01,48812
3.21,-12.18,-6.46,0.56,-3.49,2.12,29.03,-17.95,4.65,48846
4.12,-11.67,-5.81,-0.41,-2.25,2.01,30.53,-19.92,1.11,48880
3.27,-11.35,-5.90,-0.53,-0.76,1.83,31.25,-22.58,0.28,48915
3.67,-11.66,-3.02,-0.44,-0.71,1.30,31.29,-24.83,-1.48,48949
4.00,-10.81,-1.56,-0.32,-1.47,0.59,31.35,-25.75,-3.38,48983
4.54,-8.38,-1.77,-0.08,-2.70,-0.04,32.87,-25.36,-6.74,49017
6.23,-6.01,-2.43,0.36,-4.00,-0.62,35.25,-24.41,-10.82,49051
8.22,-3.41,-3.64,0.55,-4.07,-0.61,36.28,-23.34,-15.59,49085
3.00,-27.06,-9.44,0.24,-2.97,-0.01,36.74,-21.59,-19.03,49120
25.41,-18.23,-9.71,-1.48,-3.28,-2.55,37.15,-19.12,-22.87,49154
-14.38,-14.03,6.92,-0.96,2.23,-0.25,36.96,-17.93,-20.99,49188
1.80,-7.74,1.12,-0.58,0.60,-0.29,37.14,-16.57,-20.27,49222
0.22,-9.67,-1.01,-0.34,0.74,0.15,37.52,-16.18,-19.73,49256
0.57,-10.44,-1.26,-0.21,0.43,0.38,37.14,-16.57,-18.56,49291
-0.18,-10.23,-2.60,-0.05,0.49,0.42,37.21,-16.85,-18.24,49325
2.72,-8.97,-3.29,0.03,0.43,0.44,37.39,-17.17,-18.31,49359
-0.29,-8.74,-3.01,0.20,0.48,0.59,37.62,-17.32,-17.41,49393
2.71,-8.78,-3.46,0.24,0.24,0.29,38.07,-17.33,-18.01,49427
0.91,-8.58,-2.62,0.26,0.33,0.09,38.56,-17.76,-17.19,49461
2.38,-7.40,-3.81,0.22,0.13,-0.22,39.11,-17.57,-17.67,49496
0.21,-8.74,-3.24,0.19,0.02,-0.41,39.43,-17.68,-17.42,49530
-0.17,-9.22,-2.86,0.28,-0.47,-0.62,39.58,-16.75,-17.86,49564
-0.85,-9.53,-2.55,0.35,-0.64,-0.64,40.35,-16.43,-19.20,49598
-0.87,-10.82,-2.14,0.43,-0.96,-0.62,40.43,-15.40,-20.05,49632
0.87,-8.97,-4.00,0.53,-1.36,-0.82,41.20,-14.70,-22.46,49666
0.38,-8.24,-3.97,0.69,-1.72,-0.80,41.73,-13.36,-23.94,49701
-0.04,-8.46,-3.66,0.74,-1.79,-0.76,42.31,-12.45,-26.67,49735
0.88,-8.88,-4.37,0.73,-2.01,-0.83,42.03,-11.68,-29.25,49769
2.40,-7.89,-6.19,0.71,-2.21,-0.91,41.52,-10.86,-31.88,49803
-0.68,-8.83,-4.64,0.61,-1.99,-0.85,41.36,-9.84,-34.90,49837
-0.92,-9.58,-3.96,0.67,-2.00,-0.74,41.00,-8.70,-38.53,49872
