ax,ay,az,gx,gy,gz,mx,my,mz,timestamp
0.21,-9.63,-1.76,-0.37,0.03,-0.02,-35.40,-25.37,-27.52,1643
-0.34,-9.63,-2.41,-0.66,-0.15,-0.03,-35.19,-25.78,-28.09,1677
0.38,-9.84,-2.65,-0.28,-0.11,0.10,-34.98,-25.93,-27.40,1711
0.77,-8.81,-2.35,0.29,-0.11,0.13,-34.95,-25.75,-27.48,1746
1.95,-9.80,-1.59,-0.02,-0.27,-0.12,-35.34,-25.64,-27.14,1780
2.08,-10.04,-1.50,-0.03,-0.09,-0.32,-35.44,-25.99,-27.16,1814
0.46,-10.63,-0.95,0.49,0.23,-0.26,-35.14,-27.17,-26.53,1848
-1.53,-9.67,-0.94,0.64,0.21,-0.23,-34.70,-27.00,-26.56,1882
-0.41,-9.77,-3.53,-0.01,-0.11,-0.25,-34.43,-27.86,-26.75,1916
-1.95,-8.98,-2.90,-0.28,0.59,0.03,-34.70,-27.45,-26.56,1951
-2.53,-9.83,-0.93,-0.43,0.86,0.24,-34.29,-27.58,-28.02,1985
-0.61,-10.90,0.67,-0.50,0.96,0.35,-34.04,-27.43,-29.16,2019
2.89,-9.06,-1.52,-1.03,2.44,0.49,-34.54,-26.91,-31.69,2053
2.56,-10.35,-0.74,-1.66,4.48,1.07,-33.59,-24.80,-37.66,2087
-1.67,-11.64,1.08,-0.95,3.05,-0.30,-31.92,-24.36,-42.66,2122
0.26,-10.14,-2.33,-0.66,1.63,-0.96,-30.65,-25.11,-45.02,2156
2.20,-9.27,-4.68,-0.21,0.59,-1.41,-29.98,-26.72,-45.50,2190
1.29,-10.27,-1.57,-0.42,0.68,-1.20,-28.91,-27.97,-46.32,2224
4.58,-10.36,0.73,-0.17,0.43,-0.94,-28.16,-29.09,-46.55,2258
3.30,-10.25,-1.39,-0.11,0.41,-0.90,-27.55,-30.61,-47.16,2292
3.08,-9.59,-5.47,-0.01,0.53,-0.17,-27.20,-30.53,-47.84,2327
3.66,-10.58,-3.27,0.28,0.43,0.31,-27.45,-30.20,-47.71,2361
5.05,-9.20,-1.89,0.32,0.16,0.31,-27.74,-30.33,-47.56,2395
0.71,-12.10,-0.83,0.31,0.12,0.43,-27.61,-29.58,-47.63,2429
0.56,-8.89,-1.14,0.55,-0.29,0.21,-28.34,-30.43,-47.54,2463
2.18,-6.88,-2.87,0.56,-0.38,0.06,-29.23,-29.58,-47.15,2498
-0.24,-9.15,-5.50,0.57,-0.37,0.04,-29.79,-30.15,-45.40,2532
3.59,-6.62,-5.69,0.38,-0.26,-0.34,-29.52,-30.80,-45.48,2566
3.60,-9.23,-1.61,0.22,0.24,-0.24,-29.98,-30.65,-45.64,2600
1.72,-10.35,-0.19,0.30,0.46,-0.08,-29.66,-31.18,-45.86,2634
1.28,-11.43,-1.62,0.58,0.25,0.01,-29.44,-30.69,-46.42,2668
-2.16,-10.27,-2.86,0.67,0.59,0.16,-29.10,-30.72,-46.45,2703
-2.15,-11.71,-4.51,0.65,0.93,0.15,-28.15,-30.90,-46.58,2737
-8.21,-12.22,-7.53,0.74,1.15,-0.14,-27.08,-30.82,-48.00,2771
5.82,-15.53,-9.72,0.88,0.74,-0.15,-26.31,-31.48,-47.24,2805
4.55,-10.88,-7.50,0.51,1.96,0.74,-24.89,-31.56,-48.99,2839
3.77,-8.19,-9.40,-0.54,0.40,-0.29,-23.34,-31.77,-49.61,2874
2.75,-6.86,-3.04,-0.22,-0.84,-0.17,-22.92,-32.14,-49.01,2908
5.10,-4.05,-3.57,-0.48,-2.05,0.13,-24.23,-32.55,-48.00,2942
5.81,-3.80,-3.33,-1.04,-1.13,1.09,-26.22,-31.83,-47.44,2976
4.06,-4.85,-3.27,-1.47,-0.51,1.51,-27.92,-30.23,-47.78,3010
3.84,-6.65,-2.31,-1.66,0.00,1.80,-29.44,-27.04,-49.28,3044
3.94,-8.51,-2.45,-1.65,-0.01,1.70,-30.59,-24.47,-49.36,3079
3.47,-9.70,-2.88,-1.65,-0.22,1.42,-31.48,-21.98,-50.39,3113
2.99,-10.69,-2.98,-1.47,-0.78,0.87,-33.62,-18.80,-49.71,3147
2.55,-10.89,-3.29,-1.29,-0.91,0.53,-35.36,-17.54,-49.14,3181
2.29,-10.48,-4.10,-0.94,-1.03,0.08,-36.70,-15.40,-47.78,3215
2.68,-9.25,-3.80,-0.84,-0.88,-0.31,-37.49,-14.78,-45.97,3250
1.23,-8.90,-3.73,-0.79,-0.54,-0.37,-38.31,-14.03,-45.09,3284
0.83,-8.57,-4.40,-0.77,-0.46,-0.53,-38.75,-13.37,-44.39,3318
0.68,-7.37,-4.24,-0.92,-0.04,-0.31,-39.20,-12.99,-43.16,3352
0.43,-8.21,-4.92,-0.92,0.05,-0.13,-38.73,-11.75,-42.66,3386
-0.45,-9.58,-3.86,-1.00,0.27,0.06,-38.61,-10.58,-43.60,3420
2.01,-9.65,-3.54,-0.79,0.25,-0.06,-38.09,-9.95,-42.55,3455
4.94,-8.17,-4.87,-0.62,0.57,-0.19,-37.21,-9.51,-41.77,3489
0.64,-13.89,3.95,-0.35,3.85,0.38,-35.53,-9.43,-45.62,3523
2.12,-11.33,2.95,0.11,0.24,-1.04,-33.82,-10.04,-47.47,3557
1.70,-10.56,-3.42,1.15,-0.25,-1.21,-33.21,-11.94,-47.15,3591
2.02,-5.54,-5.70,0.52,0.79,-1.38,-33.19,-14.73,-47.21,3625
1.36,-9.13,-5.90,0.23,0.34,-0.43,-32.40,-16.18,-47.81,3660
4.93,-11.27,-1.58,0.49,0.44,0.16,-31.58,-16.38,-47.69,3694
4.72,-10.43,-2.64,0.78,0.64,0.76,-30.99,-16.11,-48.77,3728
3.16,-9.36,-4.08,0.94,0.89,1.00,-29.93,-16.08,-49.65,3762
2.71,-6.73,-5.80,0.90,1.05,1.02,-29.09,-15.96,-50.57,3796
1.56,-6.94,-5.24,0.79,1.05,0.36,-28.06,-16.38,-52.15,3831
2.32,-8.04,-5.56,0.60,1.02,0.16,-27.02,-16.87,-52.97,3865
1.77,-8.34,-2.53,0.51,1.19,-0.21,-26.21,-17.58,-53.48,3899
3.25,-9.80,-1.97,0.41,1.37,-0.24,-24.76,-19.00,-54.85,3933
4.53,-8.58,-0.99,0.45,1.55,-0.20,-22.81,-20.21,-55.89,3967
4.05,-8.51,-2.26,0.48,1.42,-0.36,-21.44,-21.24,-58.08,4001
3.78,-8.50,-2.90,0.38,1.93,-0.45,-18.94,-22.08,-58.67,4036
-3.84,-11.37,-3.78,-0.14,3.60,0.43,-15.84,-22.16,-60.86,4070
-0.83,-14.15,-11.28,0.64,3.04,-0.10,-12.15,-23.34,-62.16,4104
-2.83,-17.12,-12.01,0.98,2.78,0.08,-7.86,-24.71,-63.87,4138
9.30,-9.42,-6.57,1.41,2.36,0.31,-6.36,-26.28,-64.02,4172
14.36,-6.89,-8.86,0.82,1.24,-2.05,-3.81,-28.78,-63.69,4207
3.77,-6.14,-2.06,1.47,-1.64,-3.02,-4.21,-31.25,-63.12,4241
2.23,-1.11,-3.07,0.46,-3.82,-2.65,-7.88,-32.70,-62.36,4275
7.16,-0.23,-2.94,-0.37,-3.93,-2.08,-10.77,-33.59,-61.93,4309
3.11,-2.54,-2.10,-1.15,-2.14,-0.14,-14.12,-32.33,-61.65,4343
3.79,-5.28,-1.44,-1.70,-1.35,0.94,-17.67,-29.85,-61.72,4377
3.70,-6.93,0.15,-1.75,-1.45,1.33,-19.94,-27.04,-61.60,4412
4.04,-9.07,0.14,-1.54,-1.90,1.48,-23.55,-23.21,-60.65,4446
4.97,-10.50,-2.17,-1.31,-2.07,1.42,-26.86,-20.02,-59.76,4480
6.89,-10.57,-4.26,-0.69,-1.91,1.14,-29.71,-17.54,-57.42,4514
4.80,-11.13,-3.80,-0.47,-0.45,1.06,-31.54,-15.11,-56.65,4548
3.81,-11.59,-2.68,-0.35,-0.05,0.73,-31.75,-13.90,-56.31,4583
4.10,-11.72,-0.87,0.14,-0.56,0.13,-32.21,-12.72,-55.26,4617
5.39,-10.65,-1.38,0.74,-0.79,-0.32,-33.18,-12.79,-53.70,4651
6.88,-10.49,-0.50,0.85,0.07,-0.33,-33.37,-13.71,-54.30,4685
-3.20,-18.92,-2.73,1.05,0.66,-1.05,-32.08,-15.26,-54.00,4719
-2.41,-9.20,-3.57,1.39,-0.14,-1.43,-31.51,-17.55,-54.71,4753
0.47,-3.87,-5.53,1.07,-0.78,-1.14,-32.07,-20.53,-53.04,4788
-3.05,-17.83,-6.75,0.42,0.09,0.35,-31.29,-20.04,-52.38,4822
4.61,-6.70,-0.42,0.80,-0.25,-0.10,-31.47,-20.37,-51.29,4856
6.22,-8.45,-4.18,1.04,-0.05,0.12,-31.10,-20.18,-51.30,4890
2.77,-10.53,-3.78,1.32,-0.34,-0.07,-31.20,-21.73,-50.64,4924
5.49,-5.66,-4.82,1.60,-0.96,-0.59,-31.29,-22.83,-49.02,4958
-2.40,-12.26,-6.88,1.74,-1.23,-0.69,-31.09,-23.88,-46.92,4993
-13.76,-20.64,-3.37,2.75,-2.07,0.20,-31.13,-25.11,-44.08,5027
-21.57,-21.32,-7.40,4.71,-5.07,0.52,-31.42,-26.85,-34.52,5061
5.23,-22.17,-17.75,5.94,-11.12,-3.98,-30.58,-31.99,-20.43,5095
-0.89,9.87,-21.53,2.97,-6.54,-2.95,-24.32,-35.63,-10.90,5129
-12.58,-0.32,-11.90,1.72,-4.72,0.67,-20.08,-35.37,-5.19,5164
10.06,-9.34,-6.96,2.32,-6.73,-0.77,-14.88,-34.54,0.37,5198
4.61,-0.23,-27.46,2.72,-6.80,-2.24,-6.71,-34.29,5.31,5232
39.16,38.89,-36.30,0.07,-1.38,-2.07,0.13,-33.97,6.23,5266
18.72,-3.64,-20.65,-0.34,-3.76,-2.58,2.08,-35.19,5.70,5300
6.40,-6.53,5.19,-1.49,-0.49,0.03,4.56,-36.33,4.62,5334
5.22,-12.89,5.65,-1.24,-0.96,-0.31,5.93,-37.30,3.54,5369
6.87,-5.79,-7.50,-0.82,-1.68,0.35,7.76,-38.54,2.29,5403
-1.10,-16.93,-4.57,-0.66,-1.93,1.60,8.78,-40.25,1.43,5437
4.71,-27.20,14.83,2.11,-4.61,0.67,11.17,-39.11,2.06,5471
-18.10,-10.28,2.36,2.54,-4.74,-2.47,18.81,-35.28,2.22,5505
3.57,2.13,-14.02,4.12,-9.60,-5.18,29.58,-28.87,-2.82,5540
6.98,4.26,-11.49,2.50,-6.42,-3.63,36.16,-22.76,-8.89,5574
4.09,-2.06,-5.41,1.10,-3.47,-2.69,39.30,-18.44,-12.79,5608
0.15,-6.72,2.38,0.90,-3.16,-2.16,40.94,-15.02,-17.11,5642
-0.81,-13.37,0.27,1.72,-3.85,-2.58,41.89,-12.61,-22.79,5676
3.64,-8.11,-1.33,2.23,-3.91,-2.72,41.73,-8.10,-29.10,5710
19.73,-14.81,-17.18,0.65,-1.29,-1.66,41.13,-5.67,-31.98,5745
1.00,3.05,1.89,1.05,-0.96,-1.75,40.11,-3.10,-31.80,5779
11.78,-13.18,-10.28,0.21,-0.97,-0.03,39.87,-2.37,-33.72,5813
5.06,-6.04,4.80,-0.18,1.23,0.23,40.37,-3.03,-31.73,5847
8.77,-10.39,-11.76,-0.69,0.99,1.53,41.55,-4.17,-30.05,5881
4.24,-11.98,-13.87,-0.68,1.86,2.03,42.85,-6.04,-27.84,5916
8.11,-13.76,-12.60,-0.80,3.39,2.28,44.10,-9.35,-23.18,5950
0.05,-16.08,-15.77,-2.05,5.77,3.30,43.82,-13.17,-15.46,5984
6.48,-2.38,-9.55,-3.71,7.34,2.59,40.31,-18.15,-5.95,6018
1.00,14.71,-0.82,-4.61,4.91,1.19,34.95,-23.78,1.17,6052
-8.39,-10.18,-0.73,-3.36,-0.38,1.03,33.70,-27.23,-0.28,6086
3.06,-7.81,0.03,-0.64,-4.04,-0.38,35.88,-28.57,-3.77,6121
-11.97,-14.34,7.28,-0.42,-0.17,-1.57,37.81,-26.83,-4.31,6155
-2.09,-32.50,-15.48,0.06,-3.50,-2.66,41.25,-23.74,-9.15,6189
0.01,-1.82,1.69,-0.34,-0.53,-2.91,42.69,-18.25,-10.22,6223
12.59,-13.90,-4.58,-0.27,-1.49,-1.04,43.73,-16.40,-12.29,6257
2.95,-13.03,0.72,0.63,-1.82,-1.68,43.82,-13.20,-14.67,6291
7.81,-6.02,-3.66,1.15,-3.01,-2.35,43.79,-8.74,-18.77,6326
5.83,-12.09,-2.84,0.86,-2.66,-2.02,43.10,-6.21,-22.68,6360
2.59,-13.51,-1.70,1.43,-3.44,-3.10,40.97,-1.11,-27.86,6394
-1.54,-14.80,-2.14,1.95,-3.85,-3.14,38.28,2.88,-33.12,6428
2.26,-15.63,-1.59,2.27,-3.51,-3.16,35.21,5.39,-39.23,6462
-3.74,-3.23,-2.73,3.13,-3.52,-4.50,29.14,7.97,-45.66,6497
-0.83,-7.62,-8.51,2.99,-3.34,-1.92,24.06,8.26,-51.18,6531
8.11,-9.01,-6.95,1.54,-1.27,-1.99,19.82,8.10,-53.99,6565
9.26,8.06,5.30,2.52,-2.85,-4.94,14.64,7.92,-57.00,6599
0.09,-8.00,-9.65,0.93,-0.05,-2.28,11.37,7.91,-57.53,6633
9.91,-13.10,-5.09,0.22,0.64,-1.03,10.90,8.13,-56.94,6667
10.60,-9.24,-12.26,0.30,0.60,-0.96,10.48,7.80,-57.00,6702
7.36,-12.52,-8.11,0.79,-0.24,-0.92,9.35,7.03,-57.34,6736
6.71,-39.20,-6.06,1.56,-1.26,-2.40,6.59,5.57,-58.70,6770
-10.58,-19.55,-0.78,3.89,1.13,-5.30,4.94,3.39,-60.44,6804
-28.55,5.18,-17.10,1.71,-5.65,-6.93,-3.43,-0.73,-62.01,6838
-28.27,0.98,0.49,4.27,-7.03,-3.54,-12.58,-6.42,-61.02,6873
-12.44,-1.94,-1.46,5.82,-9.27,-1.07,-21.29,-13.26,-55.03,6907
13.14,0.47,-6.59,5.60,-9.21,-0.07,-29.52,-18.85,-45.63,6941
39.16,18.89,-39.16,2.06,-4.47,-0.38,-32.67,-20.68,-39.54,6975
16.58,-7.27,-22.36,-0.16,0.00,0.98,-32.27,-20.43,-39.14,7009
39.16,1.44,-0.88,-0.63,1.07,-3.27,-31.03,-20.90,-42.06,7043
-11.78,-37.88,-10.41,-1.88,2.54,1.34,-28.53,-20.10,-46.07,7078
-4.21,-32.83,-3.78,-1.00,2.93,2.68,-27.74,-18.97,-48.87,7112
10.29,-14.04,-0.83,-0.99,3.53,5.00,-26.02,-15.51,-51.48,7146
12.70,-6.19,3.07,-1.52,4.66,5.55,-20.96,-8.71,-56.68,7180
6.87,-2.38,-5.08,0.26,3.37,2.68,-16.35,-7.04,-58.48,7214
5.47,-0.95,-11.59,-0.35,4.06,1.12,-12.28,-6.72,-60.58,7249
3.44,-13.47,-1.80,-0.07,3.01,0.05,-8.14,-6.43,-61.44,7283
2.50,9.57,-5.95,1.95,-0.37,-2.94,-7.64,-9.22,-62.45,7317
2.19,-9.39,-2.74,1.40,-0.01,-1.20,-7.94,-11.52,-62.80,7351
-2.78,-8.95,-2.30,2.41,-0.47,-1.30,-9.05,-14.63,-63.10,7385
-6.86,-6.65,-8.49,3.34,-2.29,-1.09,-11.37,-18.59,-62.39,7419
-3.25,-13.69,-5.39,4.53,-4.08,-0.97,-16.06,-24.33,-59.30,7454
-1.94,-12.46,-6.92,5.24,-5.66,-0.85,-22.04,-29.47,-54.14,7488
-6.54,-16.94,-11.50,4.89,-8.70,-1.50,-26.76,-34.13,-43.79,7522
-7.24,-11.27,-17.42,4.89,-9.78,-2.14,-29.87,-37.50,-27.67,7556
-5.01,-7.52,-17.02,3.42,-7.84,-1.37,-27.87,-37.99,-16.18,7590
4.02,-2.41,-18.60,1.94,-6.38,-1.28,-21.89,-37.65,-6.68,7625
1.88,-4.89,-12.90,0.75,-3.27,-0.38,-18.68,-36.96,-3.54,7659
-0.20,-9.59,-6.97,0.86,-3.43,-1.45,-15.39,-36.90,-1.04,7693
16.20,-1.06,-0.92,1.52,-5.27,-2.62,-6.72,-37.11,2.85,7727
-4.07,-15.68,-11.62,0.70,-4.79,-0.75,-2.40,-36.38,3.71,7761
4.93,-4.74,-4.21,0.42,-3.13,-1.66,4.11,-35.68,3.46,7795
6.26,-10.51,-20.00,-1.94,-0.16,1.57,5.32,-36.66,2.02,7830
7.59,-11.95,-2.39,-2.34,0.65,1.33,3.87,-39.16,0.75,7864
2.03,-13.19,-6.50,-1.35,-0.45,0.92,4.09,-40.56,-1.51,7898
-1.07,-21.89,1.02,-0.78,-1.50,1.54,3.65,-41.73,-2.62,7932
-14.85,-27.29,1.53,1.14,-3.29,0.26,5.80,-42.12,-1.80,7966
-8.76,-24.06,2.13,4.62,-9.18,-3.57,12.20,-39.26,-1.07,8000
-8.79,1.98,-17.57,5.64,-11.60,-5.28,24.23,-33.05,-3.87,8035
31.62,17.66,-18.33,4.81,-11.31,-6.91,36.14,-23.00,-15.89,8069
3.07,-0.18,-16.32,1.83,-6.59,-4.98,38.28,-16.62,-22.42,8103
-0.64,1.30,-4.72,0.95,-1.68,-2.05,38.98,-13.02,-26.64,8137
-0.46,-7.95,-5.25,-0.31,-0.66,-1.15,39.37,-11.55,-27.54,8171
11.45,-18.61,-7.86,-0.37,-1.73,-2.64,38.83,-11.18,-29.16,8206
-1.39,-7.43,-4.89,-1.01,2.52,-1.24,39.18,-8.51,-26.13,8240
11.25,-15.36,-9.43,-1.37,1.32,1.55,39.37,-9.69,-24.82,8274
10.53,-14.42,-6.13,-1.67,3.06,2.13,40.21,-12.07,-21.25,8308
-4.66,-9.10,-16.63,-2.05,5.46,1.60,39.11,-15.43,-13.53,8342
-6.81,2.15,-14.83,-2.91,4.83,2.52,37.33,-18.84,-7.57,8376
-6.75,-0.14,-6.91,-3.38,5.25,4.16,32.71,-26.47,-2.44,8411
-13.37,-18.54,-1.02,-2.00,1.77,1.87,28.59,-30.62,-0.96,8445
-7.81,-11.11,-6.22,-1.11,1.02,-0.40,28.46,-31.44,-0.50,8479
-3.62,-4.11,-3.35,-1.00,0.80,0.49,27.32,-32.77,-0.80,8513
15.24,-8.74,-1.39,-0.40,-0.20,0.49,27.33,-33.97,-1.45,8547
-7.09,-2.13,-3.56,-1.18,2.59,0.68,25.59,-35.52,-0.41,8582
16.12,-5.11,-7.80,-0.42,-1.00,-0.45,27.04,-35.46,-1.67,8616
10.89,-6.33,0.22,-0.71,-1.22,-1.30,27.61,-35.65,-2.31,8650
7.14,-6.29,-4.56,-0.67,-2.02,-1.83,30.50,-34.08,-4.53,8684
4.00,-7.60,-6.26,-0.41,-2.57,-1.73,33.03,-33.21,-7.54,8718
-1.86,-12.60,-1.34,0.68,-4.02,-2.73,35.74,-31.15,-14.92,8752
1.99,-9.55,-4.15,1.35,-5.00,-3.65,40.21,-25.46,-16.84,8787
-0.74,-12.37,-0.44,0.90,-3.54,-2.94,41.57,-21.05,-21.57,8821
5.17,-8.45,-4.38,1.34,-3.74,-3.13,42.84,-16.15,-27.78,8855
9.94,-8.88,-1.84,0.81,-2.70,-2.27,42.66,-12.67,-31.76,8889
5.03,-14.24,-0.64,1.19,-3.19,-2.71,41.99,-9.60,-36.60,8923
10.19,-9.88,-0.65,1.60,-3.34,-3.57,40.25,-4.82,-41.61,8958
2.60,-13.73,-1.06,1.71,-3.62,-3.48,36.92,-1.65,-46.42,8992
3.29,-16.02,-1.02,2.17,-3.70,-3.12,31.92,1.97,-52.06,9026
-0.09,-20.61,3.04,3.06,-3.48,-4.07,26.19,2.85,-56.77,9060
0.17,1.42,8.53,4.34,-4.49,-4.20,19.03,2.47,-62.61,9094
-2.53,-16.79,-27.00,1.79,-2.59,-1.71,12.32,-0.79,-66.50,9128
-7.88,-10.71,-1.22,0.41,2.23,-1.31,11.25,-1.52,-65.74,9163
-1.91,-4.42,-14.68,1.06,-0.40,-1.87,8.62,-3.04,-68.01,9197
4.02,-7.62,-8.79,0.21,0.52,-1.08,7.88,-2.98,-68.06,9231
7.93,-9.00,-8.72,0.69,-0.27,-0.48,7.45,-3.62,-68.55,9265
11.33,-21.56,-11.03,1.27,-0.06,-0.91,6.37,-4.24,-68.81,9299
5.67,-38.40,-16.87,2.01,0.56,-3.51,6.30,-5.89,-68.99,9333
1.28,14.07,-39.16,2.38,-1.61,-6.19,5.25,-8.84,-69.15,9368
-28.01,0.06,4.44,3.37,-4.89,-3.52,-4.50,-11.33,-68.71,9402
-19.75,1.09,5.52,3.24,-7.15,-0.02,-14.07,-14.92,-66.47,9436
-1.32,-14.47,-4.73,5.03,-9.97,2.43,-24.90,-18.82,-57.10,9470
15.85,4.64,-16.26,4.20,-6.54,1.68,-34.65,-19.48,-47.47,9504
0.96,7.02,-9.54,1.56,0.20,-0.28,-36.20,-19.83,-43.95,9539
17.27,-38.94,-27.59,-2.15,0.78,2.60,-35.72,-16.90,-44.12,9573
25.25,5.44,-0.82,-1.29,2.27,-2.44,-32.90,-18.63,-47.65,9607
7.04,-20.13,-13.10,-1.42,0.71,-0.17,-30.77,-17.28,-49.85,9641
-1.13,-12.13,-1.24,-0.44,2.36,0.29,-29.06,-17.74,-52.44,9675
-6.78,-14.24,-1.61,-0.26,1.50,0.81,-28.16,-16.87,-53.24,9709
3.85,-8.21,-1.15,-0.26,1.72,2.21,-26.47,-14.67,-54.72,9744
6.91,-7.22,-0.79,-0.21,2.76,2.46,-24.00,-12.70,-56.99,9778
0.89,-8.64,-4.32,-0.03,3.36,2.03,-19.76,-10.95,-59.09,9812
-1.43,-9.31,-3.38,2.01,-0.39,-0.98,-18.46,-13.08,-59.60,9846
-8.39,-8.60,-9.11,3.01,-2.76,-1.75,-19.99,-17.19,-58.14,9880
-6.89,-10.94,-7.32,4.16,-4.10,-2.12,-22.80,-22.68,-54.57,9915
-9.85,-10.44,-11.52,5.01,-5.76,-2.46,-26.28,-29.83,-48.23,9949
-7.19,-11.72,-12.27,4.95,-6.24,-2.04,-28.30,-35.22,-38.94,9983
-1.86,-9.30,-12.30,4.95,-7.21,-1.73,-28.14,-39.32,-26.57,10017
-0.27,-14.23,-13.80,3.41,-6.42,-1.06,-26.98,-40.18,-17.30,10051
2.49,-11.21,-20.44,2.60,-5.73,-0.56,-23.52,-40.30,-10.26,10085
2.93,-7.26,-16.79,2.36,-4.97,-0.29,-20.26,-38.92,-2.09,10120
3.62,-4.25,-14.09,2.50,-5.83,-1.22,-14.60,-36.57,3.54,10154
0.45,-9.11,-18.64,2.05,-5.95,-1.53,-5.83,-35.19,8.59,10188
-0.52,-4.22,-14.58,1.13,-4.06,-0.76,1.02,-33.10,9.68,10222
0.69,-6.60,-8.71,0.90,-4.01,-0.41,5.54,-31.95,10.67,10256
2.57,-6.23,-10.52,1.50,-5.56,-0.76,12.93,-29.52,9.81,10291
12.49,5.97,-18.36,0.00,-2.82,-0.26,18.56,-28.35,8.11,10325
5.29,-1.16,-6.99,-1.20,-1.30,0.64,19.91,-30.75,6.43,10359
7.17,-12.96,1.53,-1.20,-1.26,0.56,21.18,-32.14,4.15,10393
-5.31,-18.29,-0.29,0.49,-1.84,0.91,23.03,-32.45,3.45,10427
6.25,-16.52,1.09,1.60,-3.81,0.59,25.86,-31.80,1.56,10461
-8.18,-8.16,-5.20,3.62,-6.72,-1.94,29.99,-28.75,-2.88,10496
4.19,-3.32,-18.44,5.15,-11.29,-7.78,36.57,-21.31,-13.23,10530
3.49,17.35,-12.31,4.34,-7.19,-6.27,39.99,-9.16,-23.46,10564
7.28,5.03,-8.62,2.44,-4.71,-2.40,38.66,-5.42,-31.91,10598
12.19,-2.79,-3.72,0.98,-2.13,-1.16,36.95,-3.67,-35.47,10632
10.24,-20.87,-6.04,-0.09,-1.83,-1.66,36.12,-2.37,-36.95,10666
3.99,-3.72,0.48,-0.35,0.57,-2.51,34.71,0.56,-38.42,10701
-0.68,-8.21,-8.03,-1.03,0.80,0.38,34.17,1.64,-36.07,10735
4.18,-15.92,-2.91,-1.89,2.85,1.31,36.10,0.47,-33.28,10769
0.51,-13.87,-10.76,-2.08,2.89,3.51,37.83,-2.43,-28.03,10803
11.36,-14.05,-7.62,-1.22,3.42,3.83,39.40,-7.45,-23.81,10837
-0.55,-3.92,-24.22,-2.17,7.12,3.73,39.92,-12.07,-16.14,10872
-8.21,-10.07,-20.91,-2.74,7.45,2.07,36.26,-17.85,-5.10,10906
-8.74,-4.25,-13.97,-3.55,6.03,1.49,31.38,-21.88,1.87,10940
8.62,11.13,0.45,-3.23,3.04,1.35,27.78,-25.59,7.04,10974
-9.27,0.54,3.22,-2.94,1.37,1.98,25.07,-30.59,3.87,11008
-0.25,-10.91,1.63,-0.87,-3.26,0.30,26.86,-33.03,0.77,11042
-20.65,-25.03,-8.69,-1.29,0.73,-0.97,28.11,-31.99,-1.55,11077
14.90,-5.14,-13.02,-0.18,-1.48,-4.10,31.89,-28.91,-3.03,11111
-9.52,-15.37,-2.81,-0.86,-0.41,-0.51,32.74,-28.38,-2.44,11145
6.67,-17.64,8.95,0.16,-0.43,0.53,33.29,-29.41,-4.22,11179
8.50,-0.83,-0.55,0.66,-0.90,-0.22,33.82,-29.22,-4.43,11213
9.99,-4.70,-1.86,-0.34,-0.53,0.19,34.95,-29.90,-5.70,11248
9.02,-3.06,-8.51,-0.22,-1.52,-0.64,36.23,-29.51,-6.91,11282
4.44,-4.21,-8.11,-0.52,-1.90,-1.10,37.85,-28.30,-9.43,11316
2.48,-6.74,-3.84,-0.44,-2.27,-2.05,40.50,-25.53,-12.07,11350
4.13,-5.92,-9.87,-0.07,-2.47,-2.42,42.71,-22.35,-14.97,11384
6.27,-9.32,-0.50,-0.08,-2.57,-2.66,43.79,-18.91,-17.39,11418
6.72,-9.18,-3.07,0.21,-2.59,-3.10,44.40,-13.81,-21.69,11453
8.25,-9.84,-4.74,0.33,-2.54,-3.20,44.17,-9.28,-25.37,11487
16.48,-7.62,-7.12,1.02,-3.51,-4.17,42.47,-2.51,-29.73,11521
4.33,-14.04,-1.86,0.33,-2.66,-3.23,39.58,1.93,-33.63,11555
5.73,-17.76,0.01,0.93,-2.99,-3.17,36.23,5.92,-36.17,11589
1.11,-21.29,-2.08,1.91,-3.22,-3.88,31.19,9.84,-41.65,11624
-1.41,-24.83,-3.68,2.83,-3.66,-5.11,24.57,11.93,-46.86,11658
-2.69,-5.19,-7.65,4.75,-4.64,-7.81,13.97,12.91,-54.81,11692
-11.67,6.91,0.73,5.73,-5.06,-5.18,1.40,8.18,-59.89,11726
1.16,-3.76,-12.44,4.29,-4.75,-3.20,-7.38,2.66,-62.25,11760
14.31,-6.27,4.25,0.71,-0.06,-1.96,-9.24,-0.12,-61.97,11794
1.03,-8.26,-0.75,0.81,0.27,-0.60,-8.84,-1.05,-62.58,11829
10.24,-4.70,-1.20,0.97,0.12,-1.36,-8.97,-2.65,-62.86,11863
5.84,0.46,-3.69,0.07,0.85,-1.70,-8.68,-3.42,-63.55,11897
3.27,-7.81,-0.73,-0.72,1.90,-0.64,-6.84,-2.70,-63.67,11931
8.25,-6.95,-9.34,-0.36,1.37,-0.28,-5.50,-2.34,-63.68,11965
7.38,-6.91,-10.53,-0.27,1.13,0.56,-3.60,-2.03,-63.61,12000
7.66,-13.77,-11.31,0.52,0.51,1.03,-2.24,-2.75,-63.75,12034
5.17,-21.14,-11.92,1.61,1.26,0.62,0.07,-4.68,-64.47,12068
-1.22,-15.82,-14.12,4.27,-0.19,-3.29,0.89,-8.71,-65.05,12102
-12.51,12.14,-38.79,2.86,-6.75,-8.27,-4.72,-14.35,-64.16,12136
-26.57,9.57,-2.40,3.46,-8.54,-4.39,-15.58,-21.82,-60.38,12170
-11.60,-10.98,2.74,3.74,-7.28,-0.02,-22.65,-26.15,-53.07,12205
6.24,-9.80,-0.31,3.71,-8.77,0.52,-28.95,-29.25,-43.20,12239
13.42,-1.88,-1.92,2.21,-3.33,1.64,-31.47,-29.87,-38.07,12273
4.92,-17.47,9.45,1.20,-3.19,0.18,-32.21,-31.29,-34.68,12307
34.35,-12.98,-26.51,-1.16,-0.60,-1.42,-33.34,-30.42,-32.99,12341
6.56,-31.65,-11.51,-2.00,4.20,2.22,-32.23,-29.58,-39.11,12375
17.92,-12.38,-2.97,-1.09,2.66,0.50,-31.38,-28.98,-42.85,12410
-8.71,-27.23,-2.66,-1.69,4.40,2.62,-30.08,-25.99,-47.41,12444
-2.09,-20.39,-2.74,0.65,0.69,0.16,-28.95,-26.40,-48.96,12478
-4.91,-10.49,-7.31,0.85,0.11,1.17,-30.09,-25.10,-49.58,12512
0.18,-7.58,-6.33,0.48,0.95,1.82,-30.12,-23.65,-49.47,12546
3.29,-7.34,-8.04,0.79,0.78,0.89,-30.17,-22.62,-50.03,12581
-0.45,-7.49,-0.69,1.35,-0.18,0.32,-30.14,-23.06,-49.68,12615
5.59,-7.46,-2.75,1.74,-0.40,-0.36,-30.56,-24.01,-48.57,12649
-2.27,-7.33,-7.64,2.38,-1.58,-1.21,-30.61,-25.84,-46.24,12683
-6.33,-11.44,-4.98,3.02,-3.04,-0.43,-32.32,-27.99,-42.22,12717
7.34,-2.89,-14.57,4.12,-6.19,-1.72,-33.44,-31.88,-32.27,12751
-1.15,-5.40,-14.96,3.19,-5.86,-1.13,-33.22,-33.75,-23.53,12786
-1.80,-3.23,-19.42,2.49,-8.06,-2.45,-29.77,-36.07,-13.61,12820
4.52,-4.43,-14.00,1.62,-6.35,-1.97,-22.92,-37.91,-3.52,12854
4.26,-7.05,-9.02,1.27,-6.11,-2.08,-16.60,-38.18,1.46,12888
5.75,-7.43,-5.31,1.19,-5.84,-2.47,-8.74,-39.52,5.51,12922
1.05,-6.11,-7.47,0.57,-4.24,-1.37,-1.52,-38.37,7.40,12957
-0.42,-4.21,-11.53,1.02,-4.59,-1.69,4.14,-37.30,7.94,12991
6.02,-4.81,-11.10,0.44,-3.38,-1.15,10.60,-36.13,7.72,13025
2.12,-2.16,-9.07,0.59,-3.90,-1.64,15.61,-35.19,6.65,13059
5.15,-9.15,-1.21,-0.19,-2.20,-0.39,18.90,-34.62,5.48,13093
14.36,-8.88,-3.78,0.90,-3.79,-1.50,24.22,-33.37,3.30,13127
9.36,-7.78,-8.86,0.73,-2.40,-0.61,27.02,-32.13,1.80,13162
3.49,-10.16,-6.66,3.03,-6.38,-2.96,30.94,-29.29,-1.71,13196
28.60,-16.02,6.06,2.84,-5.61,-2.84,36.89,-23.22,-7.10,13230
9.43,7.32,-5.78,4.61,-7.93,-5.18,40.41,-16.57,-15.07,13264
9.25,13.28,-7.32,2.66,-4.65,-3.08,41.65,-10.01,-23.76,13298
1.41,-1.68,-5.52,0.80,-2.57,-0.59,41.57,-9.31,-27.19,13333
7.83,-19.77,-6.98,0.39,-1.83,-0.87,40.87,-9.41,-30.06,13367
-2.13,-0.81,8.20,1.29,-1.95,-1.61,40.44,-6.58,-32.39,13401
8.83,-24.71,-10.52,1.14,-2.81,-0.10,39.52,-6.75,-36.98,13435
3.37,-1.65,-2.40,0.13,0.13,0.17,39.73,-6.80,-38.34,13469
8.69,-3.30,-6.71,-0.24,0.76,-0.21,39.61,-6.12,-37.11,13503
2.75,-9.00,-6.84,-0.65,1.13,0.48,40.27,-6.08,-35.97,13538
9.62,-8.95,-5.48,-0.23,1.64,1.67,41.58,-7.16,-32.96,13572
5.47,-7.59,-10.09,0.26,2.09,2.13,42.62,-9.50,-31.00,13606
3.20,-12.51,-21.56,-1.26,6.46,2.66,42.74,-13.30,-21.70,13640
3.28,1.71,-28.97,-2.69,5.40,-0.72,41.54,-13.74,-13.65,13674
2.12,10.35,-22.30,-5.57,8.78,1.91,38.18,-17.85,-3.49,13708
-11.99,-7.99,-11.32,-6.78,8.73,2.88,28.00,-27.83,6.17,13743
-9.10,-5.46,1.73,-4.23,2.90,0.45,22.98,-33.37,6.20,13777
-8.88,-17.80,9.03,-0.67,-1.92,-0.31,22.92,-34.57,4.33,13811
-9.73,-1.80,-36.05,0.79,-6.69,-4.43,31.38,-30.82,-0.53,13845
-5.65,-2.41,-1.82,-1.03,0.18,-0.95,33.69,-26.83,-1.14,13879
24.80,-10.01,-0.86,-0.60,-1.27,-1.26,35.74,-25.65,-3.14,13914
3.63,-13.76,6.14,0.44,-2.83,-2.94,37.15,-23.43,-6.53,13948
8.98,-14.50,6.53,1.82,-5.24,-3.97,39.86,-17.89,-12.01,13982
10.77,-13.15,-5.60,2.59,-6.24,-6.02,41.27,-8.61,-21.44,14016
6.85,-10.93,1.18,3.24,-6.53,-7.18,38.67,-0.20,-31.20,14050
13.34,-9.85,3.25,2.84,-5.64,-5.70,31.92,7.07,-40.05,14084
8.60,-26.83,2.42,2.02,-2.16,-4.93,26.51,10.38,-43.69,14119
-4.59,-5.26,3.32,2.12,-1.41,-3.40,21.10,12.54,-47.37,14153
0.16,-17.43,-5.32,1.61,-0.93,-1.53,18.40,12.01,-49.23,14187
-7.44,-17.93,-3.12,1.59,-0.03,-2.42,16.24,11.82,-50.35,14221
-9.56,-5.66,-1.20,1.83,-0.32,0.24,14.53,10.86,-51.71,14255
10.38,-24.64,-11.14,1.03,-0.61,0.35,14.10,9.40,-53.08,14290
2.23,2.99,4.12,1.36,0.51,-1.22,13.84,8.92,-54.62,14324
-2.02,-10.67,-10.99,0.75,0.17,0.51,14.37,7.66,-54.97,14358
-1.37,-0.07,0.59,-0.21,2.02,-0.14,15.61,7.56,-54.14,14392
3.90,-8.29,-13.94,0.35,0.59,0.12,15.21,7.40,-53.32,14426
0.69,-14.44,-9.79,1.11,-0.61,0.37,15.61,5.82,-54.28,14460
2.37,-19.33,-2.17,3.39,-1.57,0.06,14.48,3.01,-56.66,14495
-2.71,-28.65,-3.49,5.59,-2.87,-1.95,12.41,-2.62,-60.52,14529
1.04,-4.66,-22.80,7.78,-6.90,-5.60,3.80,-10.19,-64.32,14563
-2.13,-4.16,-12.47,6.00,-11.25,-8.77,-9.11,-18.18,-62.09,14597
-16.15,2.83,-7.93,4.75,-8.99,-5.21,-18.82,-28.38,-54.47,14631
-18.45,0.43,4.32,4.62,-6.56,-0.46,-23.79,-33.15,-46.32,14666
14.31,-7.17,4.13,3.33,-7.97,2.71,-28.97,-33.63,-35.34,14700
39.16,5.04,-28.84,1.19,-2.85,3.45,-31.88,-31.10,-31.86,14734
-23.62,-25.34,-39.16,-0.37,-2.79,1.02,-32.93,-29.87,-28.02,14768
-8.36,-17.59,1.55,-1.69,1.22,0.81,-33.06,-29.80,-31.37,14802
22.59,-17.69,12.36,-0.46,-0.52,0.84,-34.26,-29.26,-30.87,14836
14.89,-5.54,0.75,-0.01,1.25,1.20,-35.14,-27.43,-32.23,14871
11.40,-6.41,-7.98,-0.67,3.30,2.74,-35.88,-24.16,-34.80,14905
7.59,-9.82,-4.16,-0.82,4.01,2.74,-36.10,-20.53,-40.08,14939
8.40,-6.36,-5.14,-0.52,2.93,1.36,-34.58,-17.67,-43.93,14973
2.37,-6.03,-9.90,-0.57,2.56,0.87,-32.96,-16.38,-46.93,15007
3.62,-9.56,-7.25,-0.65,1.81,0.56,-31.29,-15.13,-48.86,15041
0.35,-9.93,-3.81,-0.28,1.84,0.31,-30.27,-14.03,-50.20,15076
-1.63,-7.72,-7.60,-0.02,1.51,-0.05,-29.11,-13.71,-51.40,15110
-3.56,-11.53,-4.99,0.23,1.52,0.19,-26.44,-13.71,-53.49,15144
-5.54,-10.63,-5.06,0.95,0.88,-0.52,-25.61,-14.70,-53.65,15178
-2.25,-9.48,-6.18,1.58,-0.05,-0.86,-24.86,-17.20,-52.41,15212
-3.52,-9.11,-4.26,2.63,-1.60,-1.30,-25.58,-20.83,-51.65,15247
-4.83,-10.65,-7.26,3.29,-2.81,-1.69,-26.56,-24.66,-47.71,15281
-6.68,-9.97,-9.92,3.83,-4.62,-1.89,-28.54,-29.86,-40.37,15315
-8.27,-9.56,-14.28,3.94,-5.33,-1.68,-29.11,-33.65,-32.27,15349
-4.86,-8.28,-19.26,3.94,-6.65,-1.92,-28.41,-35.88,-23.37,15383
-9.07,-4.49,-21.01,3.65,-7.06,-2.02,-24.58,-37.45,-12.10,15417
-8.66,-12.11,-17.92,3.16,-6.37,-1.55,-19.77,-37.78,-4.57,15452
-0.51,-9.92,-17.55,2.81,-7.00,-1.72,-11.44,-37.30,2.86,15486
-5.10,-4.74,-24.34,2.72,-7.76,-1.97,-2.98,-36.00,6.93,15520
-6.37,-4.16,-25.16,2.28,-7.19,-2.05,6.77,-34.23,8.73,15554
-4.62,-6.13,-19.10,2.31,-7.94,-2.76,18.71,-30.49,7.15,15588
1.54,2.35,-27.26,2.99,-9.32,-3.76,29.49,-25.64,1.42,15623
11.27,0.07,-15.87,1.30,-4.76,-1.81,35.49,-22.46,-4.43,15657
14.04,3.92,-13.11,0.89,-3.96,-1.70,37.83,-20.11,-8.33,15691
5.04,-3.19,-1.14,-0.61,-0.03,0.73,37.94,-20.83,-9.15,15725
17.74,-4.24,-6.09,-0.15,-0.60,-0.14,38.78,-21.02,-10.96,15759
8.72,-2.48,-6.55,-0.60,-0.42,0.22,38.29,-21.40,-11.11,15793
11.15,-6.58,-3.07,-0.89,-0.50,0.31,39.13,-22.42,-11.63,15828
7.55,-5.72,-5.23,-1.03,-1.03,0.34,39.26,-23.49,-12.50,15862
-0.57,-22.34,2.88,-1.09,-1.65,1.50,39.73,-25.26,-14.59,15896
-13.05,-22.42,5.49,-0.12,-0.73,1.85,39.84,-27.17,-17.82,15930
-4.54,-13.26,-9.83,2.35,-5.68,-1.97,41.71,-26.00,-21.92,15964
8.08,0.00,-13.52,5.31,-10.52,-7.30,41.92,-19.44,-31.99,15999
0.40,2.16,-8.86,3.90,-7.18,-6.86,37.88,-10.67,-43.23,16033
4.81,13.82,-8.00,3.22,-5.39,-4.85,33.44,-6.88,-51.20,16067
7.07,3.48,-4.00,1.36,-2.62,-1.93,29.36,-6.08,-54.53,16101
5.42,-32.26,-15.05,-0.62,-0.77,0.03,28.47,-5.00,-55.54,16135
-1.51,0.98,3.30,-0.99,3.22,-2.66,30.39,-0.50,-51.72,16169
3.19,-25.74,-12.81,-1.13,1.11,0.68,32.02,1.99,-49.69,16204
7.40,-18.52,-1.97,-1.07,2.28,1.48,34.54,1.80,-46.87,16238
13.62,1.00,-6.76,-0.80,1.88,1.69,36.92,0.64,-43.66,16272
19.26,-7.70,-2.20,-1.69,3.34,2.17,39.68,-1.81,-37.28,16306
4.33,-4.80,-14.34,-2.08,4.01,2.13,41.44,-3.00,-31.77,16340
-4.24,-14.37,-8.67,-1.75,4.01,3.86,42.58,-7.25,-23.30,16375
-5.32,-15.31,-5.90,-0.64,3.47,4.73,43.03,-13.83,-19.16,16409
-11.51,-2.79,-28.37,-1.52,6.69,5.74,40.94,-21.15,-11.62,16443
9.60,2.61,-26.69,-3.32,5.52,1.74,35.08,-26.85,-3.10,16477
4.89,-5.25,-11.50,-3.60,6.77,-0.60,30.21,-29.44,1.34,16511
0.65,-1.45,0.47,-3.48,3.51,-2.66,27.17,-30.28,3.52,16545
-11.21,-10.30,10.32,-1.67,-2.06,-2.89,28.50,-29.64,1.30,16580
-0.35,0.76,-3.93,0.99,-6.86,-4.10,34.32,-25.67,-5.93,16614
0.76,-12.31,15.21,2.38,-5.28,-5.27,39.83,-17.06,-12.98,16648
-16.19,-39.20,-39.01,1.50,-6.71,-5.41,41.14,-9.68,-22.16,16682
-7.84,-2.01,7.64,-0.90,2.06,-1.81,39.26,-2.62,-23.63,16716
23.26,-15.68,0.53,0.20,-2.01,-2.24,38.15,0.99,-25.23,16750
15.02,-21.07,6.75,1.36,-3.68,-3.82,35.19,5.33,-28.76,16785
16.69,-5.56,3.41,1.92,-4.13,-3.58,29.74,9.35,-34.24,16819
39.16,16.56,-11.93,2.88,-8.24,-6.72,21.24,12.32,-41.36,16853
-25.48,-0.25,-13.24,1.03,-2.84,-3.21,15.32,12.20,-43.96,16887
3.39,-14.77,-0.47,1.61,-3.20,-3.22,7.10,11.40,-46.61,16921
7.74,-13.87,1.52,1.99,-4.66,-4.46,1.26,9.66,-48.71,16956
4.97,-12.29,-2.13,1.93,-3.45,-3.38,-3.89,7.09,-49.90,16990
2.48,-10.22,-1.53,1.66,-1.81,-2.27,-7.29,4.87,-50.13,17024
5.51,-8.86,-0.16,1.57,-2.66,-3.02,-10.17,2.43,-51.13,17058
-1.04,-8.50,-5.53,1.56,-4.73,-4.40,-16.97,-1.15,-49.75,17092
-4.70,-6.91,-8.81,1.79,-8.79,-6.82,-23.34,-5.98,-44.52,17126
-0.93,-9.28,-8.30,1.47,-8.00,-7.02,-28.91,-12.80,-38.04,17161
16.94,-16.15,4.10,0.67,-2.22,-5.80,-29.61,-21.65,-34.54,17195
10.13,-9.28,-8.67,0.18,-1.06,-2.48,-28.62,-24.01,-35.37,17229
2.43,-14.06,-3.92,-0.13,1.50,-1.35,-28.22,-25.68,-35.87,17263
-5.55,-3.77,-6.68,0.28,0.48,-1.49,-26.70,-27.20,-36.90,17297
5.25,-13.88,2.23,0.34,-0.21,-0.97,-25.93,-28.19,-37.21,17332
-5.30,-9.68,0.30,1.46,-0.51,-1.18,-25.01,-30.20,-36.60,17366
1.70,-17.13,-16.78,1.61,-2.08,0.33,-25.20,-31.29,-34.93,17400
4.14,-7.26,2.58,1.80,-1.06,0.99,-24.93,-31.44,-33.09,17434
13.00,3.09,-7.74,2.32,-2.00,-0.55,-25.08,-32.83,-29.99,17468
16.29,-2.99,-7.11,-0.20,1.51,0.89,-25.24,-31.86,-30.53,17502
11.17,-2.65,-5.55,-0.93,2.51,0.34,-24.95,-31.51,-33.62,17537
3.67,-3.63,-11.94,-1.71,1.56,-0.58,-23.93,-31.63,-35.63,17571
0.28,-19.41,1.54,-1.22,0.80,0.33,-23.84,-30.66,-37.31,17605
0.02,-13.24,-5.21,0.43,-0.23,0.67,-23.81,-30.62,-37.84,17639
-3.52,-19.21,2.60,1.18,0.49,2.89,-25.18,-28.66,-37.69,17673
-5.23,-15.28,-1.24,2.50,-2.54,1.44,-26.67,-28.69,-33.40,17708
-28.54,-16.47,-14.32,2.54,-7.95,-3.31,-26.43,-31.79,-25.05,17742
-19.14,0.59,-20.48,4.13,-12.90,-8.19,-19.69,-37.42,-12.29,17776
-4.44,9.94,-13.82,3.46,-9.03,-5.81,-6.97,-39.46,-3.32,17810
8.43,7.40,-0.56,3.15,-2.07,-2.34,-1.24,-39.24,-0.32,17844
5.36,-0.51,-1.64,1.93,-4.72,-1.28,4.81,-38.54,1.08,17878
39.16,-14.22,-28.10,-0.06,-4.31,-1.00,9.49,-38.82,-0.19,17913
5.32,10.67,-1.22,-0.82,0.73,-1.99,10.11,-38.83,-0.13,17947
16.97,9.63,-6.83,-0.39,-1.17,-0.66,10.60,-39.02,-0.94,17981
4.07,-3.24,0.12,-0.50,0.79,-0.75,10.90,-38.86,-0.95,18015
4.20,-11.57,-5.23,-0.48,0.20,0.40,10.51,-39.26,-1.56,18049
3.20,-9.40,-3.41,-0.68,0.39,0.72,9.81,-39.90,-1.83,18083
2.38,-8.28,-4.16,-0.81,0.62,1.75,7.94,-40.69,-2.12,18118
3.54,-9.01,-1.58,-0.74,1.36,1.97,4.88,-42.11,-2.73,18152
1.80,-9.00,-4.19,-0.66,1.66,1.47,2.27,-42.46,-3.52,18186
2.19,-6.84,-6.29,-0.55,0.91,0.86,0.19,-42.91,-3.64,18220
3.57,-8.48,-2.46,-0.37,0.88,0.30,-1.62,-42.74,-4.56,18254
3.17,-9.11,-4.85,0.01,0.59,-0.45,-1.84,-42.94,-3.98,18289
2.23,-3.65,-6.52,0.41,-0.17,-1.20,-1.04,-43.01,-4.02,18323
2.84,-7.74,-5.50,0.32,-0.59,-0.96,0.88,-42.18,-3.54,18357
5.50,-9.42,-0.65,0.62,-0.48,-1.45,1.99,-41.83,-2.69,18391
5.92,-4.98,-5.02,0.76,-0.91,-1.22,3.90,-40.94,-1.33,18425
6.27,-8.33,-4.72,0.61,-0.80,-0.89,5.22,-40.00,-0.96,18459
4.91,-7.97,-1.68,0.74,-0.70,-1.19,6.40,-39.62,-0.99,18494
4.09,-7.62,-2.46,1.19,-1.37,-1.03,8.75,-38.35,-0.80,18528
5.85,-9.59,-4.86,1.55,-1.80,-1.20,10.90,-36.90,0.01,18562
3.17,-6.49,-5.03,1.34,-1.49,-1.42,13.74,-34.79,0.42,18596
1.45,-10.38,-4.53,1.11,-1.33,-1.32,15.70,-33.32,1.15,18630
-1.04,-12.08,4.84,1.78,-2.01,-1.81,17.87,-31.18,0.34,18665
-0.04,-12.40,-5.36,2.77,-3.19,-1.74,21.65,-27.05,0.61,18699
1.61,-10.67,-7.33,2.29,-2.58,-1.50,23.94,-23.78,-0.29,18733
-1.01,-10.30,-8.45,1.85,-2.22,-1.25,26.18,-21.46,-1.90,18767
-1.97,-10.12,-4.98,1.73,-1.99,-0.75,27.64,-18.24,-2.84,18801
-1.18,-10.03,-9.44,1.97,-2.16,-0.38,28.73,-16.59,-5.19,18835
-3.05,-9.56,-10.46,2.13,-2.92,-0.02,30.52,-14.43,-7.16,18870
3.24,-8.56,-20.53,3.45,-6.03,-0.63,31.75,-12.00,-11.74,18904
-3.90,-9.48,-6.96,2.63,-3.82,1.08,33.18,-10.90,-16.69,18938
-5.69,-4.38,-16.72,3.44,-9.48,-1.61,34.23,-8.40,-27.27,18972
-9.57,1.69,-25.30,2.21,-8.50,-1.91,31.57,-6.18,-36.64,19006
9.52,2.14,-16.30,0.78,-6.55,-2.10,27.26,-3.39,-44.75,19041
10.60,-8.58,-5.94,-0.12,-1.75,-1.82,23.85,-1.55,-46.01,19075
4.90,-6.40,-3.22,-0.04,-1.18,-1.98,22.14,0.51,-48.32,19109
3.65,-10.05,-3.28,-0.02,-0.98,-1.71,20.17,1.75,-48.80,19143
-6.48,-2.70,-8.61,1.06,-2.49,-2.33,17.70,2.76,-50.07,19177
-0.24,-6.59,-4.68,0.16,-0.56,-0.50,15.58,3.49,-50.99,19211
0.75,-5.67,-3.50,0.45,-1.02,-0.78,13.93,4.03,-52.51,19246
5.13,-6.79,-4.20,-0.31,-0.61,0.25,12.98,3.55,-53.14,19280
8.58,-11.70,-0.73,-0.62,-0.01,1.28,12.96,3.62,-53.30,19314
9.41,-11.32,0.87,-0.42,1.85,3.06,15.59,3.32,-51.87,19348
13.77,-5.40,-5.03,-0.57,3.60,4.26,20.61,1.49,-50.10,19382
12.57,-2.03,-6.58,-1.59,9.01,4.65,30.30,-1.94,-41.11,19416
-9.96,-5.95,-1.32,-1.57,11.30,2.92,36.14,-4.87,-27.89,19451
-38.40,-20.72,-11.86,-1.36,4.70,0.23,36.88,-6.05,-21.19,19485
-14.16,-13.25,-6.85,-0.60,4.32,1.10,36.89,-5.07,-21.13,19519
-9.87,-8.43,-5.66,-0.45,1.01,-1.51,37.04,-3.16,-20.62,19553
-6.22,-14.34,-4.74,-0.84,1.55,-0.75,36.04,-1.20,-20.17,19587
4.48,-12.71,-0.46,-0.31,0.12,-0.90,35.65,0.22,-19.95,19622
2.16,-8.47,-2.51,0.17,0.04,-0.94,35.66,1.13,-19.61,19656
7.23,-7.71,-5.55,0.44,-0.57,-0.59,35.28,2.38,-21.54,19690
6.39,-3.82,-3.63,0.25,-0.07,-0.61,35.06,3.07,-21.41,19724
6.73,-5.37,-8.57,0.22,-0.29,-0.44,34.74,3.70,-22.61,19758
3.22,-8.27,-7.51,0.52,-0.71,-0.01,35.11,3.14,-23.56,19792
6.53,-11.06,-6.79,1.33,-2.43,-0.20,35.15,3.77,-26.66,19827
-14.36,-17.00,-6.82,1.32,-2.03,0.03,34.70,3.23,-30.69,19861
-27.60,-10.62,-2.77,3.27,-5.52,-3.23,32.45,4.95,-37.72,19895
-10.56,-1.38,-11.34,2.60,-5.65,-1.04,26.34,6.09,-48.47,19929
-16.84,-33.01,-7.30,0.92,-0.81,2.27,25.45,3.20,-50.29,19963
-3.35,-10.34,-6.71,1.33,-1.67,0.16,23.38,1.70,-53.65,19998
11.89,-6.03,-9.69,1.01,-2.25,-0.50,19.91,1.21,-56.85,20032
0.83,-4.91,-5.98,0.56,-1.84,-0.80,17.30,1.10,-58.16,20066
7.35,-12.92,0.75,0.90,-1.86,0.31,15.87,-0.61,-60.58,20100
10.53,0.06,-6.01,0.61,-1.16,-0.36,13.81,-1.62,-61.33,20134
15.49,-4.19,-3.74,-0.56,0.93,1.45,14.53,-1.72,-61.03,20168
17.74,-10.86,1.09,-1.01,1.75,0.10,16.91,-1.42,-59.62,20203
3.36,-0.03,-0.07,-0.66,2.58,-1.60,19.16,-0.12,-58.93,20237
3.59,-4.86,-7.49,-0.65,1.14,-0.14,20.05,0.88,-57.37,20271
5.73,-5.86,-6.38,-0.73,0.62,0.11,21.66,1.74,-56.30,20305
2.82,-1.74,-10.84,-0.23,0.27,0.07,22.07,1.64,-55.92,20339
2.48,-8.69,-6.28,-0.08,-0.45,-0.14,21.67,1.49,-56.11,20374
3.93,-6.66,-4.35,0.17,-0.90,-0.78,20.59,1.81,-56.69,20408
3.85,-7.30,-3.24,-0.16,-0.54,-0.91,19.61,2.48,-57.50,20442
2.20,-7.12,-5.17,-0.38,-0.11,-0.73,18.65,3.41,-57.51,20476
1.32,-8.15,-6.21,-0.43,0.05,-0.59,18.27,4.49,-57.18,20510
0.20,-9.62,-3.92,-0.26,-0.08,-0.59,17.86,5.12,-57.75,20544
-0.88,-11.11,-3.99,-0.15,-0.26,-0.14,17.28,5.60,-58.07,20579
-2.04,-12.14,-2.60,-0.21,-0.18,0.28,17.38,5.55,-57.61,20613
-1.32,-10.78,-2.21,-0.24,-0.02,1.04,17.60,5.47,-57.85,20647
0.74,-18.68,-2.07,-0.56,0.70,1.79,19.04,4.65,-57.54,20681
2.74,-8.34,-2.13,-0.49,0.56,1.72,20.67,4.00,-56.52,20715
4.02,-8.94,-3.12,-0.69,1.23,2.00,22.98,2.57,-55.13,20750
1.91,-8.19,-1.13,-0.76,1.53,1.90,25.48,2.12,-53.90,20784
4.18,-9.86,-1.57,-0.89,2.04,1.95,27.73,0.94,-51.89,20818
4.34,-9.65,-1.05,-1.06,2.67,2.32,31.94,-1.20,-48.61,20852
3.08,-10.52,-0.54,-1.09,3.27,2.95,35.57,-3.87,-45.24,20886
5.29,-11.89,-0.11,-1.31,4.87,4.06,39.73,-8.48,-39.37,20920
8.78,-9.99,-1.28,-1.34,5.62,4.32,42.53,-13.96,-31.51,20955
6.38,-11.97,0.19,-1.28,6.40,4.50,43.39,-19.89,-23.21,20989
8.86,-13.00,4.21,-0.92,5.56,3.63,41.26,-27.14,-14.88,21023
9.26,-9.18,-0.49,-0.41,4.35,2.65,38.78,-30.39,-8.87,21057
5.81,-3.54,-9.29,-0.10,3.28,1.54,35.24,-33.46,-5.06,21091
5.96,-5.80,-7.64,0.11,2.03,0.37,33.46,-34.51,-2.81,21125
-1.11,-2.85,-8.83,0.20,1.55,-0.55,32.30,-34.29,-1.20,21160
3.10,-8.98,-2.80,0.11,1.14,-0.65,31.58,-32.94,-0.28,21194
-0.65,-4.47,-5.47,0.30,0.70,-1.13,31.63,-32.32,0.50,21228
3.89,-10.08,-2.23,0.11,1.26,-0.35,30.99,-32.27,2.16,21262
1.03,-7.62,-1.69,0.69,1.08,-0.70,29.86,-30.77,2.25,21296
2.93,-10.94,-5.00,0.37,1.10,-0.33,29.52,-30.31,3.42,21331
2.16,-9.79,-4.13,0.72,0.55,-0.59,28.69,-29.10,4.78,21365
-2.77,-10.61,-9.41,1.21,-0.18,-0.27,28.71,-28.05,4.75,21399
-6.54,-12.03,-7.74,1.96,-1.37,0.27,29.68,-26.70,4.74,21433
-3.81,-18.58,1.34,4.11,-3.59,0.84,32.36,-23.75,1.81,21467
-16.36,-9.54,-24.79,6.14,-12.15,-2.37,37.72,-18.72,-7.70,21501
-30.33,-0.07,-38.54,5.07,-15.42,-4.42,41.26,-11.11,-32.53,21536
-4.63,6.12,-26.96,3.99,-13.69,-5.11,32.21,-7.72,-49.11,21570
7.68,3.62,-11.25,-0.44,1.45,1.90,27.48,-7.15,-51.74,21604
-5.49,-6.28,0.92,-1.07,3.40,3.45,31.29,-9.37,-46.51,21638
13.73,-0.98,-10.84,1.12,-4.11,-2.90,29.26,-7.72,-49.27,21672
24.55,-3.74,-20.13,0.48,-1.32,-2.08,25.90,-5.26,-50.51,21707
9.26,-5.96,-6.23,0.00,-0.99,-1.79,24.92,-3.27,-50.89,21741
7.17,-8.82,0.07,-0.34,0.21,-0.65,23.84,-2.82,-50.51,21775
4.05,-11.37,-1.04,-0.13,-0.38,-0.77,23.46,-1.24,-50.39,21809
2.75,-11.15,-4.07,-0.07,-0.76,-0.11,22.22,-0.20,-51.15,21843
4.55,-10.72,-0.04,0.44,-2.10,-0.23,21.44,-0.42,-52.91,21877
3.59,-9.75,-4.30,0.98,-3.03,-0.88,17.76,-0.39,-55.67,21912
-10.01,-7.95,-5.60,1.82,-4.74,-2.01,13.31,-0.69,-58.37,21946
-3.80,1.69,-19.12,3.99,-11.45,-5.88,-1.83,-4.05,-62.63,21980
28.18,24.16,-34.37,1.83,-6.58,-3.81,-12.61,-7.70,-60.54,22014
4.48,-7.08,1.66,-2.03,-0.67,-0.35,-11.46,-5.13,-60.79,22048
10.42,-11.35,-0.65,-1.12,-0.33,0.01,-12.98,-3.33,-59.44,22083
-2.79,-26.20,-0.04,-0.27,-1.28,1.23,-13.78,-2.47,-58.90,22117
-23.05,-33.86,5.10,1.50,-3.43,0.74,-17.13,-3.23,-58.05,22151
-9.68,-24.99,-3.24,4.04,-7.56,-3.22,-25.64,-9.46,-53.13,22185
-0.31,7.55,-29.99,7.28,-14.56,-8.62,-34.08,-20.61,-39.36,22219
10.77,24.38,-28.27,5.84,-10.94,-7.50,-32.10,-33.09,-18.84,22253
10.49,20.86,-13.21,2.76,-5.11,-3.27,-26.94,-36.58,-10.99,22288
12.06,-5.39,-6.69,-1.29,1.82,0.65,-26.60,-37.23,-11.50,22322
9.86,-14.93,9.51,-0.63,1.33,-1.32,-27.01,-39.18,-15.54,22356
-9.55,-4.14,-5.04,-0.75,0.46,-2.41,-24.89,-41.90,-17.20,22390
11.57,-8.58,-3.77,-0.37,0.26,0.05,-23.90,-42.90,-17.93,22424
3.43,-12.42,2.44,-0.59,1.55,0.11,-24.67,-42.60,-19.92,22458
5.97,-17.89,-3.56,-1.37,1.34,1.67,-25.58,-41.39,-22.43,22493
2.00,-12.23,-7.95,-1.21,2.08,2.38,-27.81,-39.01,-25.90,22527
-0.20,-14.35,-5.00,-0.66,2.18,3.27,-30.04,-35.31,-27.93,22561
2.71,-12.37,-8.40,0.16,2.91,4.06,-32.70,-31.26,-30.77,22595
7.29,-9.76,-18.14,-0.82,4.99,4.81,-33.67,-24.48,-37.33,22629
21.78,8.17,-27.12,-3.14,5.86,2.37,-32.37,-20.36,-44.55,22664
4.54,-0.36,-5.34,-3.83,6.29,-0.68,-26.56,-16.49,-52.86,22698
0.21,-1.04,9.01,-3.18,2.41,-1.65,-23.25,-13.87,-54.88,22732
-8.66,-14.30,8.29,-0.60,-3.68,-2.59,-24.48,-13.84,-53.35,22766
0.25,-10.08,9.83,1.62,-4.77,-3.60,-28.90,-18.44,-47.85,22800
-3.13,-10.94,-38.25,0.33,-4.51,-3.10,-31.91,-21.54,-43.67,22834
-12.16,-4.96,-7.67,-1.15,1.58,-0.96,-31.23,-23.74,-43.96,22869
8.87,-15.08,-0.30,-0.47,-0.58,-0.52,-31.41,-23.57,-44.45,22903
3.47,-16.54,4.37,0.14,-1.08,-1.22,-31.53,-24.41,-43.31,22937
2.64,-6.26,-8.54,0.69,-2.20,-1.71,-32.23,-26.95,-40.27,22971
4.42,-15.76,-0.11,0.56,-1.91,-2.12,-33.13,-29.16,-37.97,23005
-2.71,-6.08,-1.89,2.52,-3.56,-4.21,-32.37,-33.75,-33.60,23040
1.37,-18.71,-3.13,2.07,-3.94,-2.17,-31.13,-38.13,-26.57,23074
9.51,-19.74,2.57,1.48,-2.02,-2.09,-28.68,-40.22,-22.55,23108
6.77,7.05,1.01,3.79,-3.52,-3.72,-24.32,-43.64,-15.84,23142
14.64,-2.25,-15.48,2.36,-3.53,-1.51,-21.59,-43.91,-10.32,23176
-3.90,-6.87,2.10,0.72,0.73,0.11,-20.61,-43.70,-9.46,23210
1.47,-8.99,-7.61,0.13,0.20,-0.35,-19.45,-44.40,-8.59,23245
1.73,-15.07,-4.79,1.06,-0.53,-0.08,-18.97,-44.52,-7.12,23279
1.62,-17.30,-0.78,2.06,-1.36,0.01,-18.27,-43.28,-4.36,23313
6.66,-15.07,-9.29,4.92,-5.82,-2.31,-13.33,-41.01,2.41,23347
-36.99,-15.31,-36.55,7.31,-10.47,-7.98,0.76,-36.09,10.03,23381
-12.93,1.67,-25.60,5.74,-15.37,-11.70,28.11,-21.35,4.02,23416
-2.11,3.17,6.28,2.11,-4.83,-3.32,36.57,-13.10,-3.98,23450
-20.72,-1.47,22.70,1.87,-3.35,0.39,39.52,-11.78,-9.24,23484
39.09,-10.67,-5.75,3.91,-10.72,-0.74,42.97,-10.90,-21.32,23518
-39.20,1.08,2.48,2.64,-4.94,-2.85,43.39,-10.07,-29.55,23552
39.16,-34.95,-38.21,-1.59,-3.32,-1.96,41.77,-6.94,-33.09,23586
-0.75,-3.51,-6.64,-2.11,1.09,-0.08,42.93,-6.61,-27.10,23621
21.41,-16.72,8.63,-1.75,2.12,1.80,43.01,-10.19,-24.10,23655
-5.17,-12.78,2.79,-1.47,4.78,2.46,43.38,-13.55,-17.77,23689
9.65,-17.47,3.02,-1.12,2.84,2.74,42.36,-18.08,-13.24,23723
4.86,-13.99,1.84,-0.63,3.04,2.78,39.81,-23.37,-9.03,23757
-1.36,-8.84,-0.99,-0.32,3.85,2.51,36.50,-26.54,-5.25,23791
0.06,-9.42,-6.51,0.37,1.86,1.22,33.48,-28.27,-1.37,23826
4.08,-6.56,0.11,0.83,1.32,0.74,30.68,-28.54,0.39,23860
2.93,-10.34,-5.19,1.25,0.52,0.11,29.55,-27.68,0.66,23894
-4.35,-8.33,-5.23,2.50,-0.83,-0.29,29.38,-24.92,2.35,23928
-2.41,-10.59,-7.49,3.43,-2.58,-0.50,31.06,-21.76,1.13,23962
-5.86,-10.84,-8.77,4.56,-4.78,-0.53,34.13,-16.90,-2.62,23997
-13.37,-11.56,-14.27,4.89,-6.84,-0.58,38.32,-12.55,-12.00,24031
-12.69,-14.85,-28.17,4.91,-11.46,-1.52,41.46,-8.83,-27.00,24065
-5.93,-7.76,-29.66,3.40,-9.68,-1.11,38.07,-8.33,-44.36,24099
1.84,-5.37,-22.46,1.95,-7.91,-1.31,32.05,-9.38,-54.25,24133
4.74,-5.79,-14.77,0.54,-4.60,-1.13,26.60,-9.53,-59.21,24167
-2.92,-10.64,-10.67,0.59,-4.67,-1.46,20.36,-9.70,-63.11,24202
4.69,-9.48,-4.50,0.16,-3.68,-0.82,14.28,-9.78,-64.22,24236
1.94,-7.00,-7.65,0.61,-4.50,-1.84,7.22,-10.17,-66.00,24270
6.87,-0.01,-16.89,1.72,-6.65,-2.72,0.31,-12.10,-66.84,24304
7.64,1.76,-21.81,-0.05,-2.77,-0.10,-6.08,-11.93,-65.80,24338
10.23,-2.55,-4.79,-0.24,-2.32,-0.99,-8.96,-11.88,-65.32,24373
21.47,0.76,-15.02,-0.66,-2.82,-1.61,-12.47,-11.27,-63.46,24407
9.89,-0.26,-2.57,-2.69,0.84,0.30,-11.58,-8.14,-62.63,24441
10.38,-8.98,-6.29,-2.18,0.06,-0.12,-10.93,-4.78,-62.76,24475
3.59,-18.46,-2.68,-1.47,-0.92,0.44,-11.59,-2.62,-62.16,24509
-1.46,-20.78,-2.16,0.18,-2.54,0.97,-14.25,-2.43,-60.38,24543
-13.23,-18.60,-0.70,1.98,-3.94,-0.00,-18.44,-3.39,-59.35,24578
-7.48,-25.31,7.60,4.49,-8.43,-3.32,-24.86,-8.08,-54.65,24612
-4.21,5.04,-27.79,6.49,-12.96,-7.21,-34.52,-19.64,-40.31,24646
7.90,19.80,-16.95,5.32,-9.27,-7.73,-34.58,-30.66,-24.85,24680
5.29,14.24,-11.41,2.67,-5.54,-4.63,-27.89,-36.93,-14.06,24714
7.00,-3.48,-1.15,-0.93,0.75,0.55,-26.51,-37.30,-13.61,24749
12.36,-13.42,-14.16,-1.19,0.10,-0.28,-27.52,-37.74,-16.19,24783
-13.34,-0.77,-1.57,-0.78,2.57,-2.75,-25.69,-40.84,-19.48,24817
4.15,-31.88,-15.72,-1.42,-0.58,1.42,-26.44,-39.30,-21.22,24851
13.13,-17.69,4.68,-0.68,1.73,1.19,-28.19,-38.40,-22.79,24885
0.68,1.87,-4.85,-1.44,3.25,0.16,-29.03,-37.99,-26.38,24919
-5.87,-7.14,-13.60,-2.62,3.39,1.73,-29.54,-36.45,-32.36,24954
1.38,-14.31,-7.10,-2.42,2.45,2.41,-31.34,-32.68,-37.26,24988
0.16,2.31,-9.35,-2.15,2.95,1.86,-31.89,-28.82,-41.14,25022
5.02,-13.38,-3.80,-2.44,2.00,2.67,-31.85,-25.26,-45.31,25056
6.51,-10.87,-6.43,-0.78,0.86,1.68,-32.32,-22.80,-46.52,25090
2.93,-7.88,-9.29,-1.20,2.27,1.95,-31.47,-20.29,-48.86,25125
-1.30,-10.65,-3.69,-1.33,2.55,2.15,-29.79,-16.38,-51.89,25159
2.33,-4.38,-8.67,-1.78,2.14,2.20,-28.57,-12.67,-54.84,25193
14.08,1.02,0.71,-1.82,0.68,0.55,-27.26,-10.84,-54.60,25227
-9.31,-9.11,4.17,-1.06,-1.48,-1.12,-28.76,-9.78,-54.49,25261
13.31,12.85,-13.95,1.66,-8.05,-5.19,-34.08,-15.10,-45.63,25295
-10.24,-13.01,17.45,2.55,-5.68,-5.91,-37.28,-25.21,-37.50,25330
33.70,-6.02,-38.52,2.36,-10.45,-7.43,-35.08,-34.90,-25.46,25364
-4.41,-3.02,-1.48,1.45,-3.08,-4.44,-31.28,-40.16,-22.77,25398
10.16,-14.67,8.05,1.37,-2.86,-3.19,-27.11,-45.51,-18.01,25432
-6.26,-21.80,3.79,2.69,-3.21,-3.86,-21.94,-47.40,-13.02,25466
-6.56,-18.16,-12.43,3.03,-5.39,-1.92,-17.06,-47.71,-6.14,25500
-19.08,-9.64,-9.10,2.47,-0.85,0.58,-14.59,-45.67,-2.60,25535
-1.37,-10.13,-5.62,3.36,-4.20,-0.28,-10.39,-43.32,2.88,25569
6.94,-6.99,-8.89,3.75,-6.55,-1.87,-0.29,-38.94,9.38,25603
-31.80,-5.01,-19.18,3.51,-8.59,-2.84,9.82,-34.87,9.97,25637
-11.80,-0.46,-24.12,3.21,-11.56,-5.11,28.60,-28.24,3.55,25671
-4.48,-0.71,-9.55,2.70,-8.23,-4.22,37.26,-22.14,-5.14,25706
19.09,-16.04,-6.95,1.91,-5.24,-2.70,40.72,-17.45,-11.24,25740
5.52,-10.53,-4.87,1.12,-1.47,-1.89,41.54,-14.98,-15.05,25774
8.34,-9.02,-11.68,1.57,-2.57,-1.63,41.74,-12.63,-17.86,25808
13.73,-8.02,-13.68,1.25,-0.70,-0.62,40.91,-11.18,-19.88,25842
13.16,-10.33,-19.10,1.70,-0.81,-1.17,40.60,-10.07,-19.73,25876
17.71,-11.78,-6.94,0.63,0.40,-2.44,39.83,-6.68,-20.14,25911
15.68,-3.95,-7.37,-1.02,1.20,-3.78,37.78,-1.75,-18.85,25945
-0.01,-3.13,3.83,-3.01,0.63,-3.66,36.20,2.92,-15.57,25979
-9.26,-4.02,6.09,-3.51,-0.04,-2.40,33.95,5.50,-12.72,26013
-5.11,-5.64,5.58,-3.36,-1.87,-0.22,33.81,4.21,-12.79,26047
-7.28,-10.88,3.70,-1.64,-1.31,2.14,35.03,1.61,-13.84,26082
4.58,-9.67,3.25,-0.87,1.48,4.56,36.95,-4.55,-11.79,26116
-10.43,-20.90,-1.66,-1.11,1.56,4.26,36.93,-10.17,-9.00,26150
15.06,-18.08,4.71,0.11,-1.17,1.95,37.91,-13.08,-10.33,26184
9.58,-27.77,-4.00,0.84,-0.74,0.26,38.07,-13.88,-10.20,26218
-1.61,-2.20,-1.64,0.67,0.19,-0.78,37.71,-12.47,-9.81,26252
3.37,-15.59,-9.94,0.57,-0.80,-0.16,38.06,-11.20,-11.24,26287
-1.01,-10.61,-3.38,1.59,-1.60,-0.62,38.85,-10.06,-12.99,26321
-2.80,-10.51,-5.39,2.11,-2.35,-0.94,39.58,-8.46,-16.94,26355
-0.53,-9.38,-7.23,2.43,-3.21,-0.91,39.16,-6.65,-21.97,26389
-0.50,-13.48,-8.32,2.86,-4.44,-1.26,39.18,-5.42,-27.68,26423
-1.12,-8.52,-12.02,2.88,-4.76,-1.37,37.21,-4.25,-35.81,26458
1.99,-5.43,-17.82,2.53,-4.65,-1.34,34.38,-3.36,-42.15,26492
0.95,-8.33,-11.08,1.73,-4.38,-1.27,31.88,-2.24,-46.95,26526
1.51,-8.25,-10.40,1.55,-4.50,-1.66,26.56,-2.48,-52.51,26560
0.76,-4.23,-11.75,0.98,-3.25,-1.33,22.29,-1.23,-55.35,26594
4.99,-2.23,-12.12,0.58,-3.76,-1.28,18.31,-1.20,-58.26,26628
5.82,-5.30,-13.61,0.26,-4.42,-1.22,12.67,-0.54,-59.69,26663
4.58,-15.89,-3.46,-0.32,-3.03,0.35,9.49,0.04,-59.97,26697
0.89,-19.66,3.39,0.79,-3.02,0.35,5.51,-1.05,-61.37,26731
-14.24,-22.03,1.91,3.03,-5.05,-1.26,-0.09,-3.55,-62.89,26765
-11.88,-11.22,-14.95,5.60,-9.55,-4.32,-10.06,-9.21,-62.38,26799
2.78,13.24,-28.49,4.98,-9.51,-4.87,-23.97,-19.45,-54.91,26833
8.14,12.23,-18.49,1.83,-5.01,-2.15,-29.00,-23.57,-48.45,26868
5.27,-3.93,-3.33,0.11,-3.03,-1.32,-31.26,-25.83,-45.32,26902
1.96,-10.92,3.98,0.65,-3.53,-2.08,-31.91,-27.61,-41.06,26936
1.35,-12.10,6.37,1.84,-4.48,-2.22,-33.22,-30.77,-35.49,26970
10.80,-2.81,-16.87,1.01,-2.18,-1.12,-33.02,-33.06,-29.09,27004
0.39,-0.08,-2.41,0.62,-0.65,-1.74,-32.75,-34.83,-28.09,27039
4.45,-17.61,-6.06,0.73,-1.88,-0.09,-32.24,-35.38,-25.81,27073
9.65,-13.23,3.11,1.18,-1.30,-0.05,-32.27,-35.97,-23.49,27107
10.13,-3.16,-6.04,1.13,-1.58,-0.74,-31.67,-36.03,-19.82,27141
11.13,1.60,-5.20,-0.52,1.00,-0.44,-31.38,-37.20,-20.83,27175
9.83,-3.41,-9.21,-1.30,1.50,-0.50,-31.69,-38.29,-22.80,27209
4.02,-14.60,-6.32,-1.03,1.47,0.42,-32.65,-39.14,-24.70,27244
3.96,-20.24,-7.85,-0.97,2.05,1.78,-34.16,-37.84,-29.32,27278
-9.09,-17.59,-24.28,-0.90,3.84,1.86,-34.93,-36.95,-33.86,27312
-6.43,-10.31,-20.18,-1.50,3.93,0.49,-34.73,-35.94,-40.79,27346
5.70,13.89,-18.38,-1.56,3.18,-1.09,-31.73,-36.19,-46.21,27380
-20.58,5.22,3.74,-2.04,0.68,0.85,-29.79,-34.10,-49.74,27415
-7.00,-8.99,-2.80,-1.19,-6.29,0.45,-33.70,-32.64,-44.20,27449
-12.48,-8.99,-1.15,0.45,-6.59,0.22,-36.83,-32.77,-36.19,27483
39.16,39.04,-39.16,-0.13,-5.47,-1.24,-37.74,-35.31,-27.57,27517
-4.63,-39.20,-31.25,-2.23,-2.42,0.31,-38.40,-34.52,-29.67,27551
-17.03,-9.65,9.81,-0.85,5.03,-0.93,-34.36,-39.86,-32.58,27585
13.10,-23.12,0.92,0.49,-0.04,1.10,-34.19,-40.00,-32.45,27620
17.22,-7.69,-0.95,1.65,0.38,-0.03,-34.30,-39.58,-31.76,27654
7.20,0.64,-7.69,0.17,0.54,0.29,-34.22,-39.78,-32.78,27688
-1.94,-10.26,-3.10,0.72,-0.33,-0.41,-33.50,-39.74,-32.61,27722
-3.90,-12.10,-0.40,1.25,-1.76,-1.47,-32.08,-41.63,-28.66,27756
-10.76,-12.28,-5.22,1.59,-2.60,-1.39,-30.49,-43.00,-24.92,27791
-8.40,-15.62,-1.67,1.00,-1.09,0.18,-29.51,-43.28,-22.20,27825
-7.48,-15.81,0.14,1.32,-1.11,0.73,-30.52,-42.39,-19.37,27859
-10.29,-13.21,-0.04,2.03,-1.47,1.03,-30.82,-40.57,-16.97,27893
-6.14,-10.71,-9.52,2.44,-2.71,0.64,-31.29,-38.09,-12.25,27927
-3.08,-11.05,-11.80,2.44,-0.98,1.10,-31.16,-35.78,-7.75,27961
-1.28,-8.97,-9.53,3.62,-2.87,0.83,-30.62,-32.49,-3.36,27996
-5.60,-24.92,-13.12,6.45,-7.60,-3.30,-23.95,-27.49,8.24,28030
1.85,-11.00,-19.47,5.79,-9.28,-5.48,-10.95,-23.19,15.40,28064
-4.63,-10.22,-13.21,4.02,-7.76,-6.75,1.91,-18.02,17.63,28098
8.01,-7.03,-8.62,1.94,-4.65,-4.60,11.20,-13.26,17.41,28132
5.23,-3.36,-11.30,-0.03,0.93,-0.81,10.74,-12.98,16.35,28166
7.64,-8.42,-7.97,-1.10,4.50,0.81,5.71,-14.24,18.11,28201
-0.41,-9.69,-5.16,-0.77,5.28,1.99,-1.40,-15.84,17.55,28235
-3.09,-9.57,-3.36,-0.26,2.87,2.27,-6.58,-15.87,16.12,28269
5.39,-8.16,-3.40,0.11,-1.29,2.03,-6.93,-16.44,14.94,28303
6.93,-8.89,-3.13,0.40,-3.18,2.24,-3.30,-15.80,15.35,28337
6.23,-9.11,-3.50,0.31,-4.00,2.80,1.97,-15.64,15.19,28372
8.15,-10.29,-6.65,0.29,-4.03,3.19,7.70,-16.12,14.29,28406
8.85,-10.96,-7.87,0.24,-4.24,3.55,11.75,-17.25,13.27,28440
8.41,-13.45,-8.74,0.08,-4.38,3.51,17.49,-18.52,10.68,28474
10.89,-13.63,-10.94,-0.13,-5.16,2.93,22.01,-19.82,7.45,28508
13.01,-10.35,-10.58,-0.64,-4.92,2.52,26.37,-22.36,3.17,28542
13.12,-9.10,-9.21,-1.41,-4.12,2.32,30.05,-25.67,-1.83,28577
14.23,-8.34,-9.05,-1.66,-3.68,1.99,31.57,-28.00,-6.50,28611
12.48,-7.65,-7.28,-2.06,-2.88,1.40,33.24,-31.51,-10.42,28645
12.79,-7.12,-4.15,-2.22,-2.52,0.57,33.66,-32.43,-15.00,28679
12.63,-6.46,-3.78,-2.44,-2.04,0.05,34.03,-33.15,-18.42,28713
8.00,-8.87,-3.38,-2.55,-1.14,-0.34,34.27,-32.46,-22.45,28748
4.05,-10.00,-1.99,-1.97,-1.23,-0.61,34.99,-31.99,-25.11,28782
3.93,-10.26,-1.52,-1.07,-2.82,-1.30,35.38,-30.39,-29.06,28816
8.68,-9.28,-5.46,-0.59,-3.69,-1.81,35.60,-28.35,-33.84,28850
10.10,-9.64,-6.59,-1.04,-2.38,-1.99,35.60,-25.34,-37.02,28884
8.22,-9.76,-7.33,-1.62,-1.44,-2.69,35.44,-21.48,-39.43,28918
-35.72,-25.21,5.24,0.37,2.17,0.21,36.76,-19.10,-37.46,28953
12.82,-23.40,18.36,1.09,-2.77,-1.78,35.87,-17.73,-39.52,28987
1.07,-11.20,0.62,2.27,-4.33,-2.11,34.45,-16.50,-44.58,29021
2.53,-3.16,-12.98,2.10,-3.78,-1.45,31.77,-15.80,-48.33,29055
2.26,-3.26,-13.24,0.12,-1.03,-0.51,29.95,-15.62,-50.20,29089
-5.42,-10.45,-6.29,-1.85,2.62,0.50,31.44,-14.51,-48.07,29124
-3.93,-14.54,-1.20,-1.86,2.76,0.38,33.29,-13.56,-45.13,29158
-2.42,-16.12,0.06,-1.01,1.96,-0.12,35.33,-12.93,-42.08,29192
2.74,-10.98,-0.62,-0.06,0.64,-0.97,35.43,-12.16,-41.01,29226
5.68,-6.52,-2.42,-0.05,0.36,-1.04,34.81,-11.21,-40.25,29260
8.04,-0.38,-8.29,-0.99,-0.11,-0.93,34.93,-9.03,-39.64,29294
5.37,-3.44,-3.62,-1.82,2.65,0.72,35.66,-8.20,-37.15,29329
2.09,-4.99,-5.32,-2.37,4.93,2.05,37.55,-10.74,-30.36,29363
-2.87,-9.56,-1.18,-1.91,5.12,2.41,37.55,-12.96,-24.66,29397
-1.45,-10.42,1.03,-1.33,3.84,2.25,37.61,-15.78,-19.56,29431
1.96,-9.77,0.89,-0.69,2.71,1.99,36.80,-19.28,-15.02,29465
2.37,-11.75,2.52,-0.37,2.59,1.70,35.18,-21.72,-11.81,29500
0.65,-17.18,-3.91,0.24,0.98,0.74,33.94,-22.01,-10.23,29534
-0.49,-12.67,-3.90,0.97,0.11,0.04,33.91,-21.67,-9.97,29568
2.85,-14.56,-9.26,1.17,-0.55,-0.41,34.14,-20.43,-9.46,29602
2.36,-7.95,-3.91,0.93,0.41,-0.87,33.86,-18.11,-8.58,29636
0.52,-5.64,1.15,1.26,-0.71,-1.62,34.35,-15.81,-9.00,29670
0.21,-5.07,-4.48,1.73,-2.36,-1.86,34.96,-11.72,-11.58,29705
4.87,-17.09,-9.05,1.40,-2.49,-1.33,36.22,-9.18,-14.13,29739
4.11,-5.47,-2.71,0.51,-1.31,-0.79,36.67,-7.63,-16.33,29773
3.74,-10.08,0.74,0.49,-1.35,-0.51,37.08,-6.24,-18.58,29807
-0.21,-10.29,-2.86,0.56,-0.93,-0.96,37.96,-4.94,-19.10,29841
-2.13,-11.18,-5.36,0.70,-1.23,-0.60,38.10,-3.62,-20.94,29875
-0.35,-9.79,-4.83,1.21,-1.99,-0.65,39.61,-2.60,-24.67,29910
-0.44,-8.45,-5.44,1.71,-2.48,-0.90,39.26,-1.52,-28.60,29944
-3.66,-8.55,-8.52,2.22,-3.81,-1.24,38.92,-0.47,-35.19,29978
4.22,-3.91,-13.72,2.88,-5.64,-2.46,36.00,1.20,-42.52,30012
3.42,3.58,-13.47,1.52,-4.07,-2.11,32.11,2.09,-48.67,30046
9.94,-4.35,-8.26,-0.07,-2.51,-0.74,28.95,2.88,-52.50,30081
10.87,-6.98,-2.35,-1.53,-0.75,-0.05,27.97,4.75,-51.83,30115
6.44,-13.41,-0.75,-0.68,-0.23,0.23,27.89,4.88,-52.59,30149
0.77,-15.20,-4.48,-0.26,-0.75,0.24,28.12,4.81,-52.81,30183
-9.85,-23.37,-2.02,2.04,-3.66,-0.93,25.97,3.98,-56.08,30217
-2.94,-20.82,-6.10,4.37,-7.37,-3.87,17.14,1.08,-63.42,30251
-15.04,0.61,-16.41,4.65,-7.55,-3.42,5.60,-4.34,-67.71,30286
-12.83,9.64,-19.08,4.83,-9.38,-1.33,-9.87,-12.03,-67.71,30320
-1.53,2.83,-22.52,4.30,-9.81,-2.39,-22.39,-18.99,-61.74,30354
16.16,11.95,-18.69,3.14,-9.07,-3.63,-31.34,-24.80,-51.87,30388
-0.45,-1.62,-10.90,1.26,-5.61,-1.78,-35.66,-29.73,-42.22,30422
2.63,-26.32,-14.17,0.57,-5.71,-1.70,-37.18,-32.64,-36.04,30457
4.85,-8.89,-7.67,-0.20,-2.22,-1.69,-36.67,-36.14,-32.05,30491
3.15,-14.66,-2.60,1.00,-3.17,-0.70,-35.30,-37.71,-28.56,30525
11.36,-8.23,1.37,1.05,-1.26,-0.39,-34.73,-38.09,-24.79,30559
10.46,-1.24,-9.20,0.67,-1.99,-2.16,-32.39,-41.03,-22.14,30593
10.02,-10.21,2.08,0.61,-0.96,-1.64,-30.25,-42.63,-20.67,30627
3.85,-8.99,10.47,1.43,-1.30,-2.69,-27.92,-44.49,-19.01,30662
3.49,-6.10,-3.58,-0.03,0.35,-0.68,-24.95,-45.56,-17.58,30696
2.78,-10.37,-0.57,-0.76,1.35,-0.42,-24.57,-45.45,-20.18,30730
2.18,-10.83,-9.73,-0.78,1.11,0.22,-24.76,-45.07,-22.03,30764
-1.59,-9.04,-9.46,-1.16,1.67,1.43,-25.37,-43.74,-25.34,30798
-1.37,-15.55,-5.22,-0.67,1.37,2.39,-27.62,-41.13,-27.21,30833
-0.35,-20.63,0.89,0.32,1.66,3.38,-30.25,-36.39,-28.88,30867
-11.02,-14.22,-19.58,-0.23,4.54,4.08,-32.21,-32.33,-32.52,30901
19.36,-7.53,-21.15,-1.69,5.10,3.55,-33.50,-26.45,-40.03,30935
28.78,6.65,-23.33,-4.08,9.86,1.69,-28.00,-21.56,-51.21,30969
2.29,7.58,5.78,-4.03,1.99,-2.62,-21.73,-17.38,-56.65,31003
7.67,10.99,7.27,-3.96,-1.95,-2.02,-22.99,-14.59,-54.22,31038
6.57,-3.27,-4.35,-2.18,-0.42,0.40,-22.84,-11.39,-53.64,31072
-14.00,-17.19,17.34,0.31,-4.49,-3.55,-25.58,-13.08,-50.42,31106
-18.67,18.58,-39.16,1.38,-7.82,-4.82,-31.75,-19.95,-38.70,31140
-32.36,-0.01,6.11,-1.54,2.17,-0.67,-30.84,-22.48,-38.35,31174
21.48,-13.68,-3.51,-0.35,-1.61,-1.68,-31.18,-23.98,-36.01,31208
5.33,-14.05,4.40,0.75,-3.47,-3.24,-31.51,-26.63,-32.17,31243
17.28,-6.43,-3.61,1.42,-6.01,-4.89,-30.71,-30.68,-24.26,31277
13.47,-8.22,-8.28,1.15,-4.36,-5.08,-26.85,-36.50,-16.72,31311
8.01,-11.04,-0.95,1.00,-3.66,-5.43,-22.19,-41.32,-13.08,31345
5.17,-20.11,2.71,1.42,-3.99,-5.38,-14.34,-46.20,-7.06,31379
4.75,-18.13,1.18,2.01,-4.76,-5.98,-5.74,-48.51,-3.70,31414
5.99,-13.97,-1.27,1.89,-4.30,-5.31,4.81,-48.07,-1.29,31448
13.66,-12.95,-0.99,1.70,-3.60,-5.03,14.09,-45.51,0.12,31482
-1.11,-20.07,0.83,1.91,-4.26,-4.36,21.40,-41.52,-0.57,31516
-5.92,-18.78,1.13,1.94,-2.17,-2.97,26.72,-37.58,-2.12,31550
-5.96,-22.00,1.78,2.84,-2.75,-3.17,31.51,-32.48,-2.09,31584
-6.90,-11.99,-16.98,3.21,-2.86,-3.47,34.87,-26.16,-3.96,31619
