ax,ay,az,gx,gy,gz,mx,my,mz,timestamp
1.66,-10.01,-0.06,-0.43,-0.20,-0.29,-25.30,-28.62,-54.68,23816
0.05,-10.14,0.84,0.09,0.12,0.05,-25.45,-28.34,-55.90,23850
-1.09,-10.17,1.34,0.14,0.13,-0.12,-25.71,-27.55,-56.07,23884
0.80,-10.09,-0.32,0.19,-0.16,-0.18,-25.49,-27.67,-55.31,23918
2.44,-9.17,1.38,0.25,-0.34,-0.22,-25.94,-27.80,-55.07,23953
0.33,-9.87,1.74,-0.07,-0.13,-0.10,-25.61,-28.11,-55.83,23987
2.06,-9.92,0.85,0.09,0.01,-0.11,-25.64,-28.19,-56.52,24021
3.31,-9.83,0.82,0.26,0.11,-0.10,-25.18,-28.47,-56.11,24055
0.96,-9.77,1.18,0.62,0.48,0.05,-24.86,-28.87,-56.55,24089
1.08,-10.47,1.57,0.67,0.27,-0.18,-24.07,-29.39,-56.69,24124
1.04,-6.54,1.67,0.66,0.23,-0.31,-23.69,-30.59,-57.06,24158
1.46,-9.96,1.03,0.30,0.33,-0.38,-23.09,-30.71,-57.10,24192
2.47,-8.88,-0.95,0.33,0.06,-0.76,-23.17,-31.15,-57.54,24226
2.71,-8.91,-0.65,0.17,0.14,-1.01,-22.20,-31.96,-57.80,24260
4.16,-9.28,0.97,0.08,-0.03,-1.30,-21.21,-32.39,-57.12,24294
4.60,-8.74,1.99,-0.03,0.07,-1.70,-19.69,-33.70,-57.41,24329
5.35,-10.42,2.23,-0.19,0.73,-1.61,-17.98,-34.33,-58.97,24363
3.15,-9.57,4.07,0.07,1.08,-1.04,-16.05,-34.80,-58.75,24397
1.64,-10.29,3.41,0.23,1.60,-0.59,-14.28,-35.15,-59.98,24431
-0.62,-10.57,2.98,0.65,1.39,-0.26,-11.65,-35.93,-59.30,24465
-4.98,-14.03,-1.35,0.85,1.61,-0.12,-8.87,-36.48,-59.09,24500
-4.22,-13.97,-0.81,0.52,2.64,0.27,-6.72,-36.74,-59.82,24534
-1.25,-11.80,-0.76,-0.50,6.26,0.80,-1.46,-35.98,-61.27,24568
15.85,-4.96,-11.46,-0.98,8.39,0.20,7.95,-35.38,-59.76,24602
1.93,-9.38,-7.28,-2.41,4.73,-0.58,17.54,-31.67,-58.33,24636
5.42,-9.02,5.74,-2.17,5.65,0.09,23.00,-29.39,-55.90,24670
0.63,-10.70,6.47,-2.07,5.71,-0.11,28.18,-27.27,-50.35,24705
6.54,-11.88,13.48,-1.03,3.74,-0.85,32.59,-25.39,-46.73,24739
-6.89,-10.04,6.73,0.18,1.50,-1.34,34.73,-23.76,-43.99,24773
1.87,-8.35,4.20,0.97,-0.36,-1.03,35.11,-23.12,-44.30,24807
0.99,-6.89,-2.14,0.99,-0.47,-0.82,34.67,-22.92,-43.32,24841
4.31,-7.50,-2.34,0.65,-0.49,-0.70,34.43,-23.06,-44.45,24875
6.16,-9.13,-3.18,0.03,1.11,-0.75,35.11,-22.46,-43.80,24910
2.99,-13.64,0.57,-0.11,1.41,-1.03,35.88,-21.92,-41.61,24944
6.02,-8.64,-2.10,-0.54,1.34,-1.38,37.20,-20.17,-39.29,24978
6.13,-9.34,-4.06,-1.17,2.24,-1.29,38.31,-18.99,-37.40,25012
6.40,-2.67,-7.17,-1.40,1.74,-1.39,39.27,-17.04,-35.94,25046
6.88,-11.82,-3.68,-2.02,2.12,-1.05,40.41,-15.24,-33.25,25081
4.72,-8.65,-2.06,-1.90,1.48,-1.20,41.36,-13.43,-31.28,25115
4.06,-10.20,-4.94,-2.07,1.40,-1.47,42.50,-10.86,-28.98,25149
1.78,-7.31,-4.62,-2.26,1.24,-1.39,43.32,-8.21,-27.49,25183
0.17,-6.57,-4.47,-2.34,1.45,-0.66,43.74,-6.78,-25.02,25217
-1.79,-16.82,-1.89,-2.30,1.06,0.22,44.20,-5.71,-22.04,25251
3.54,-12.14,-1.62,-1.69,-0.22,-0.53,44.05,-5.10,-21.47,25286
-5.07,-10.05,1.00,-0.88,-0.31,-0.22,43.47,-3.98,-20.93,25320
-1.10,-15.33,-1.30,0.14,-1.81,0.38,43.44,-4.17,-23.68,25354
8.30,-8.52,-1.37,0.41,-2.44,-0.16,42.84,-4.55,-26.85,25388
6.66,-7.67,0.47,-0.08,-1.18,-0.37,42.78,-3.38,-28.97,25422
4.45,-10.87,1.57,-0.04,-1.07,-0.47,42.33,-2.66,-30.11,25457
-0.30,-11.08,2.95,0.45,-1.76,-0.78,41.87,-1.65,-32.93,25491
1.64,-15.89,4.02,1.39,-3.26,-1.08,40.38,0.34,-37.42,25525
10.20,-26.46,15.51,1.50,-3.74,-1.40,38.60,1.26,-41.30,25559
-0.39,-14.69,2.55,1.89,-3.47,-2.18,33.89,3.17,-47.08,25593
2.95,-4.06,3.59,2.44,-4.40,-2.60,29.55,3.98,-52.79,25627
5.39,-8.22,-4.29,2.32,-3.79,-1.95,24.33,4.09,-57.38,25662
5.20,-7.99,-6.07,1.10,-1.73,-1.57,20.13,3.98,-59.63,25696
2.01,-9.86,-3.41,0.97,-0.95,-1.08,18.72,3.81,-59.92,25730
3.32,-9.84,-0.60,0.84,-0.78,-1.18,16.52,3.48,-60.74,25764
4.69,-10.72,-2.00,1.02,-0.46,-0.54,15.43,2.63,-61.43,25798
4.98,-8.90,-1.82,0.98,0.08,-0.27,14.98,1.61,-61.63,25833
6.30,-8.21,-3.35,0.98,0.41,-0.12,14.83,0.67,-61.79,25867
2.56,-8.14,-6.12,1.08,0.53,-0.36,15.93,-0.69,-61.98,25901
3.44,-11.26,-4.59,0.93,0.65,-0.63,14.89,-1.61,-61.98,25935
8.04,-6.59,-4.38,0.68,0.93,-0.67,15.57,-2.13,-61.43,25969
9.05,-4.02,-4.55,0.48,1.26,-0.66,16.16,-2.62,-60.19,26003
11.12,-4.29,-7.13,0.23,1.95,-0.47,18.27,-3.11,-58.70,26038
14.54,-9.59,-17.01,-0.37,3.77,-0.35,21.10,-3.23,-55.09,26072
1.59,-18.72,-31.55,-0.97,5.84,-0.53,26.48,-2.51,-48.98,26106
-13.31,-14.92,-32.57,-3.37,7.52,-0.44,31.16,-1.40,-41.01,26140
-3.08,-16.46,-23.59,-5.58,8.36,-0.52,33.86,-0.82,-29.19,26174
-1.65,-13.82,-17.55,-6.60,7.97,-0.91,33.32,-1.81,-15.27,26208
-12.68,-18.52,-14.10,-6.26,7.54,-0.24,30.53,-5.20,-4.79,26243
-13.33,-20.56,-4.84,-4.54,4.23,-0.32,26.40,-9.00,1.58,26277
-5.14,-14.57,2.73,-2.96,-0.13,-0.60,25.55,-12.06,3.54,26311
-4.88,-11.95,11.20,-2.21,-0.63,-0.14,25.99,-14.53,3.11,26345
-3.56,-12.72,10.73,-1.34,-1.09,0.06,27.29,-17.14,1.91,26379
4.28,-13.40,3.62,-0.31,-1.89,-0.64,29.04,-17.55,0.91,26414
5.44,-11.65,1.19,0.22,-2.92,-0.85,31.56,-16.91,-2.46,26448
3.51,-11.56,-0.21,0.48,-3.51,-0.94,34.71,-16.03,-6.23,26482
6.59,-12.40,-0.39,0.94,-3.80,-1.29,36.66,-14.81,-10.00,26516
4.68,-9.95,1.70,1.35,-4.32,-1.79,39.46,-11.41,-16.19,26550
5.29,-10.51,2.01,2.19,-5.17,-1.71,40.62,-8.89,-22.43,26584
6.85,-13.77,0.37,2.54,-5.71,-2.46,40.05,-6.43,-30.77,26619
6.63,-10.88,0.79,2.43,-4.92,-3.13,37.55,-3.19,-39.51,26653
1.54,-8.49,-0.35,2.35,-3.39,-2.14,34.93,-1.15,-44.04,26687
3.93,-11.08,-7.00,2.30,-3.02,-1.63,31.39,-0.34,-49.47,26721
2.61,-10.58,-4.47,1.61,-1.84,-1.56,29.25,-0.10,-52.47,26755
1.89,-8.56,-0.69,1.51,-1.43,-1.49,27.14,0.25,-54.52,26790
1.43,-5.11,-3.78,1.71,-1.13,-0.68,25.10,-0.06,-57.18,26824
7.62,-11.48,-8.45,1.11,-0.46,-0.50,24.42,-1.45,-57.07,26858
5.70,-5.57,-1.38,0.90,0.01,-1.29,23.74,-0.95,-58.56,26892
7.84,-7.03,-4.03,1.21,-0.17,-1.01,23.06,-1.14,-58.32,26926
10.43,-6.83,-5.25,0.80,0.75,-0.83,22.93,-1.52,-58.90,26960
7.64,-3.83,-7.30,0.43,1.63,-0.68,24.71,-0.76,-57.70,26995
9.84,-6.60,-9.80,0.13,2.24,-0.36,26.40,-0.13,-55.63,27029
7.11,-4.30,-13.33,-0.55,3.50,-0.42,28.87,0.91,-51.36,27063
2.31,-11.29,-15.32,-0.90,4.71,0.87,32.99,1.61,-46.24,27097
0.63,-14.38,-16.41,-1.37,5.95,1.32,36.88,0.92,-38.42,27131
-6.10,-10.28,-14.57,-2.56,6.92,0.50,39.90,0.51,-26.54,27166
-7.70,-11.17,-14.38,-3.43,6.47,0.02,39.30,0.15,-17.01,27200
-5.70,-12.68,-12.31,-3.55,5.26,-0.45,36.98,-0.72,-7.99,27234
-1.23,-11.26,-8.79,-3.79,4.17,-0.76,33.00,-1.62,-2.02,27268
-7.40,-13.89,-3.49,-3.67,3.43,-0.96,29.22,-3.51,3.35,27302
0.36,-12.82,-1.02,-3.15,1.58,-0.22,27.02,-6.74,5.31,27336
-1.49,-15.87,2.28,-2.71,0.71,-0.34,25.17,-9.12,5.93,27371
-3.34,-9.56,4.92,-1.53,-0.90,-0.59,25.29,-10.82,5.82,27405
2.10,-10.60,3.35,-0.94,-1.42,0.47,26.00,-12.89,3.96,27439
5.47,-11.98,1.56,-0.80,-2.33,-0.31,27.86,-14.18,2.28,27473
3.87,-6.95,2.41,-0.01,-3.32,-0.73,30.49,-14.44,-2.54,27507
10.57,-12.42,5.18,0.17,-3.71,-0.57,32.39,-14.60,-6.01,27541
1.93,-14.39,8.33,0.59,-3.71,-1.46,34.49,-13.77,-11.31,27576
4.57,-12.95,8.01,1.82,-5.00,-2.38,36.29,-11.22,-17.57,27610
4.33,-15.27,2.67,2.32,-5.01,-2.37,36.88,-8.70,-24.01,27644
1.79,-14.76,-0.30,2.15,-4.51,-3.06,35.68,-5.51,-30.93,27678
-0.42,-8.69,0.50,2.53,-4.46,-2.46,33.73,-3.46,-36.89,27712
2.41,-14.82,-1.57,2.59,-4.26,-2.32,31.04,-2.31,-42.43,27747
1.21,-9.07,-0.71,2.35,-3.20,-2.31,27.13,-1.33,-47.38,27781
5.49,-10.47,-3.73,2.41,-2.83,-1.60,23.90,-1.58,-52.32,27815
6.67,-7.59,-5.64,1.93,-1.64,-1.73,20.86,-2.88,-54.00,27849
5.76,-4.53,-4.91,1.69,-0.83,-1.48,19.75,-3.04,-56.52,27883
7.34,-6.98,-7.81,1.23,0.29,-0.78,19.04,-4.14,-56.74,27917
6.52,-6.15,-10.50,0.75,1.19,-0.77,19.73,-4.72,-56.07,27952
4.77,-4.11,-9.31,-0.08,2.67,-0.61,22.16,-4.36,-54.63,27986
0.20,-7.71,-14.07,-0.88,4.38,0.08,26.28,-4.03,-50.09,28020
-0.87,-8.81,-15.05,-1.73,5.44,0.20,30.36,-3.93,-45.02,28054
-2.04,-8.38,-16.03,-2.82,6.95,0.24,34.17,-2.85,-36.93,28088
-0.18,-11.27,-17.38,-3.46,7.05,0.51,36.29,-2.70,-26.12,28123
-1.34,-11.28,-17.66,-4.52,8.46,0.13,36.09,-3.65,-15.29,28157
-5.06,-12.80,-9.88,-4.68,5.24,-1.18,32.68,-5.06,-5.67,28191
-3.88,-9.45,-3.28,-4.41,3.26,-0.33,30.02,-7.35,-2.09,28225
0.38,-16.30,0.81,-3.43,1.44,-0.28,28.35,-9.31,0.58,28259
0.25,-9.90,4.54,-2.00,-0.54,-0.81,28.15,-10.90,0.44,28293
0.67,-10.99,8.82,-0.94,-1.50,0.02,28.66,-11.63,-1.20,28328
5.06,-14.35,7.22,0.16,-3.04,-0.05,31.01,-12.04,-3.83,28362
1.06,-11.87,7.61,0.88,-3.52,-0.70,32.75,-11.49,-8.13,28396
0.30,-13.27,4.42,1.31,-3.69,-1.02,34.36,-10.58,-12.13,28430
1.89,-11.03,-1.73,1.54,-4.19,-1.62,35.41,-9.05,-17.52,28464
1.19,-10.65,-1.25,1.63,-3.81,-1.32,36.07,-7.57,-22.35,28499
3.08,-12.54,-1.62,1.77,-3.80,-1.25,36.41,-6.43,-28.41,28533
3.16,-13.17,-3.20,1.61,-3.62,-1.53,35.36,-5.32,-32.93,28567
1.33,-11.88,-0.14,1.81,-3.44,-1.74,34.00,-4.30,-36.93,28601
4.43,-14.78,-2.42,2.12,-3.73,-1.78,32.13,-3.26,-42.97,28635
3.63,-13.42,-3.31,2.28,-3.31,-2.19,29.23,-2.81,-48.10,28669
6.44,-6.62,-5.66,2.30,-2.87,-2.40,25.50,-2.67,-51.20,28704
4.27,-0.61,-4.36,2.57,-2.49,-1.52,23.14,-3.39,-54.62,28738
13.76,-6.36,-6.77,2.55,-1.94,-0.63,20.58,-4.98,-56.74,28772
10.18,-16.18,-9.70,1.41,-0.39,-0.55,19.80,-7.15,-58.10,28806
2.55,-1.28,0.62,0.96,0.88,-1.02,20.43,-7.41,-58.02,28840
5.89,-7.24,-1.98,0.95,0.94,0.38,21.53,-9.02,-57.23,28875
12.85,-9.41,-5.25,0.67,1.66,-0.19,24.20,-10.29,-56.74,28909
4.42,-4.77,-8.53,0.18,2.75,-0.97,26.76,-10.29,-55.14,28943
7.95,-5.88,-14.10,-0.18,3.43,-0.33,30.69,-9.50,-52.43,28977
4.49,-8.44,-17.68,-1.17,4.95,-0.13,35.18,-8.68,-47.97,29011
2.64,-7.90,-14.77,-2.25,5.89,-0.23,39.65,-6.50,-38.38,29045
-0.72,-9.67,-13.71,-2.90,6.23,-0.03,42.81,-5.19,-28.82,29080
-3.11,-16.01,-17.35,-4.09,7.66,0.24,43.53,-4.69,-18.20,29114
-8.66,-16.50,-13.63,-4.83,7.61,-0.75,39.92,-5.48,-3.05,29148
-8.30,-16.90,-8.69,-4.84,6.37,-0.41,34.48,-7.56,5.99,29182
-9.58,-15.13,-1.78,-3.84,3.65,0.00,29.70,-10.90,11.24,29216
-4.82,-10.93,0.02,-2.49,1.07,-0.21,26.91,-13.96,13.30,29250
0.11,-11.65,3.37,-1.43,-1.54,0.25,28.33,-15.24,11.53,29285
7.63,-6.25,3.95,-1.13,-1.68,0.22,29.93,-17.04,10.58,29319
27.10,-5.79,-2.14,-0.89,-1.61,-0.00,31.60,-17.79,9.25,29353
2.50,-9.09,-4.80,-0.13,-2.69,-0.40,33.25,-17.16,6.18,29387
4.79,-10.51,0.11,0.09,-3.16,-1.02,35.93,-15.38,2.25,29421
4.22,-8.52,3.35,0.29,-3.38,-1.16,37.83,-14.19,-1.27,29456
2.83,-13.91,3.58,0.42,-3.42,-1.24,39.97,-11.91,-5.66,29490
3.23,-13.45,8.20,1.06,-4.47,-2.60,40.82,-8.21,-11.47,29524
3.79,-10.88,8.55,1.73,-5.12,-2.69,40.85,-4.62,-17.60,29558
0.33,-13.07,-4.22,2.64,-6.16,-2.49,39.83,-0.37,-27.20,29592
4.77,-12.66,-0.81,2.29,-5.52,-3.05,37.27,2.54,-34.93,29626
1.08,-7.05,1.79,2.37,-4.76,-2.69,31.88,4.57,-42.60,29661
5.98,-12.09,-10.08,1.53,-2.75,-1.69,28.18,4.93,-47.21,29695
1.37,-11.70,-6.11,1.36,-1.94,-1.79,25.37,5.32,-48.79,29729
3.99,-8.78,-2.42,1.46,-1.71,-1.46,22.38,4.69,-50.95,29763
3.91,-8.67,-0.25,1.19,-0.59,-0.62,21.12,4.19,-52.81,29797
4.12,-9.56,-1.71,1.16,-0.15,-0.28,20.99,2.67,-53.33,29832
5.90,-7.01,-1.78,1.23,0.00,-0.34,20.24,1.90,-54.53,29866
7.89,-6.05,-5.30,1.17,-0.03,-0.48,20.65,0.41,-54.91,29900
9.42,-6.67,-4.76,0.82,0.46,-0.84,20.71,-0.04,-54.65,29934
5.88,-4.38,-5.85,0.58,0.72,-0.98,20.91,-0.57,-54.59,29968
6.87,-6.96,-5.77,0.41,1.17,-0.82,21.25,-0.39,-53.32,30002
6.47,-5.55,-5.67,0.14,1.63,-0.82,23.02,-0.37,-52.62,30037
4.06,-6.85,-6.56,-0.09,2.19,-0.18,24.38,-0.26,-49.52,30071
6.94,-8.02,-8.23,-0.38,2.83,-0.06,27.21,-1.10,-46.80,30105
6.42,-8.03,-8.83,-0.68,3.29,-0.56,29.63,-0.53,-43.38,30139
4.89,-7.22,-9.35,-1.20,3.69,-0.68,31.79,0.60,-40.05,30173
6.84,-10.07,-10.77,-1.57,4.03,-0.50,34.30,1.34,-33.88,30208
3.88,-10.06,-11.62,-2.06,4.71,-0.35,35.72,1.75,-27.68,30242
-0.20,-11.97,-13.93,-2.66,5.23,-0.22,36.04,1.86,-18.88,30276
-2.72,-12.33,-13.72,-3.38,5.20,0.08,35.47,0.88,-11.56,30310
2.48,-17.44,-4.58,-4.02,5.02,-0.20,32.77,-1.56,-3.92,30344
-1.94,-11.60,-4.77,-4.14,4.64,-0.92,28.25,-4.24,3.32,30378
-2.71,-10.75,-3.68,-4.03,3.31,-0.19,24.19,-7.51,7.16,30413
-3.24,-15.76,1.37,-2.90,1.69,0.11,21.81,-10.92,9.54,30447
-1.68,-12.55,3.99,-1.69,-0.15,-0.23,21.00,-13.15,9.31,30481
1.01,-11.04,7.06,-0.40,-2.17,-0.46,22.73,-13.75,8.51,30515
0.72,-9.12,9.02,0.12,-3.18,-0.46,26.67,-13.91,6.31,30549
-0.93,-9.54,6.84,0.66,-3.18,0.04,29.77,-13.08,2.85,30583
2.75,-12.25,-2.37,1.15,-3.30,0.15,32.01,-12.98,-0.64,30618
2.67,-10.35,-1.69,0.57,-2.61,-0.40,34.89,-12.12,-4.87,30652
2.07,-8.66,1.30,0.76,-3.38,-0.79,36.33,-10.90,-7.61,30686
19.18,-5.90,-3.11,1.30,-4.24,-1.07,38.41,-9.56,-13.84,30720
2.01,-8.68,1.83,1.12,-3.55,-1.12,39.16,-7.91,-17.61,30754
1.47,-9.31,-2.19,1.99,-4.39,-0.82,39.97,-6.74,-23.60,30789
5.93,-10.80,-3.37,1.90,-4.06,-0.92,39.16,-6.14,-30.52,30823
2.29,-6.11,-4.47,2.16,-3.72,-0.85,37.55,-6.14,-35.69,30857
7.30,-8.82,-8.40,1.68,-3.05,-0.46,36.12,-6.59,-40.53,30891
5.50,-6.95,-2.25,1.39,-2.24,-0.92,34.55,-6.17,-43.42,30925
6.38,-6.15,-2.72,1.40,-2.19,-1.16,33.32,-6.34,-46.10,30959
8.22,-7.64,-1.09,1.07,-1.31,-1.35,31.29,-5.55,-49.47,30994
5.50,-7.54,-1.43,0.87,-0.53,-1.39,30.94,-4.72,-51.37,31028
6.69,-7.63,-2.70,0.88,-0.07,-1.13,30.58,-4.33,-51.15,31062
6.56,-5.88,-1.59,0.60,0.71,-0.88,31.06,-3.45,-50.80,31096
7.45,-7.75,-4.16,0.46,1.13,-0.76,32.14,-2.54,-50.83,31130
6.05,-6.47,-9.12,0.31,1.73,-0.91,33.09,-1.64,-48.13,31165
6.25,-5.25,-8.20,-0.41,2.83,-0.74,34.49,-0.28,-45.37,31199
7.83,-9.85,-7.47,-0.87,3.62,-0.33,36.13,1.75,-40.78,31233
4.21,-9.77,-11.66,-1.08,4.11,-0.17,38.16,2.57,-34.13,31267
2.18,-10.11,-14.11,-1.57,5.29,-0.02,38.60,3.20,-26.64,31301
-1.87,-11.14,-14.58,-2.27,5.51,-0.10,38.29,2.92,-15.51,31335
-1.34,-12.36,-12.79,-3.18,5.33,-0.13,35.85,1.59,-10.11,31370
-0.94,-13.72,-9.59,-3.88,5.31,-0.37,32.15,-0.41,-2.24,31404
-3.42,-14.19,-6.04,-4.25,4.59,-0.90,27.04,-4.12,4.27,31438
-4.56,-10.54,-1.17,-3.51,2.87,-0.44,23.53,-7.35,7.23,31472
2.94,-11.38,1.70,-2.90,1.47,0.11,21.67,-10.52,8.51,31506
1.93,-12.97,7.34,-1.91,-0.27,-0.06,20.46,-13.91,9.85,31541
-0.14,-12.62,10.18,-0.74,-1.99,-0.81,22.16,-14.47,8.36,31575
3.26,-13.11,12.99,0.82,-4.57,-1.03,27.29,-13.39,3.57,31609
0.79,-12.92,10.14,1.92,-5.76,-1.50,31.95,-11.66,-2.51,31643
0.49,-12.73,5.93,2.32,-5.74,-1.65,35.65,-9.19,-8.62,31677
-0.94,-10.41,-0.87,2.73,-5.69,-1.72,37.75,-5.36,-17.58,31711
1.26,-8.81,-0.89,2.70,-5.08,-1.38,37.85,-3.96,-25.14,31746
0.79,-12.30,-2.29,2.53,-4.45,-1.19,37.88,-3.13,-31.23,31780
6.24,-8.70,-2.73,2.36,-3.75,-1.29,35.14,-2.41,-38.19,31814
7.21,-7.83,-1.55,2.09,-2.80,-1.21,33.50,-2.05,-42.43,31848
5.54,-9.45,-1.90,1.90,-2.04,-0.94,31.13,-2.46,-46.32,31882
7.70,-7.63,-3.76,1.67,-0.92,-0.43,31.16,-3.03,-47.62,31916
8.04,-6.38,-4.53,1.25,-0.01,-0.23,30.52,-3.55,-48.49,31951
6.64,-5.63,-3.46,0.75,0.88,-0.27,31.35,-3.62,-48.00,31985
5.36,-6.10,-5.78,0.65,1.08,-0.21,33.02,-4.18,-46.27,32019
7.18,-9.75,-6.09,0.23,1.76,-0.17,34.43,-4.18,-44.11,32053
6.42,-6.13,-9.35,-0.30,2.14,-1.01,36.26,-3.19,-41.16,32087
3.04,-8.59,-13.24,-0.36,2.53,-0.85,37.21,-1.04,-38.47,32122
1.17,-9.58,-14.19,-1.16,3.84,-0.19,38.92,-0.20,-32.52,32156
2.05,-11.87,-16.15,-2.62,6.14,0.05,38.76,0.58,-23.08,32190
-1.89,-9.78,-7.79,-3.83,6.94,-0.29,38.02,-0.85,-9.16,32224
-0.11,-11.45,-2.13,-3.67,5.03,-0.01,34.43,-3.24,-3.74,32258
-0.01,-12.74,5.00,-2.73,2.92,-0.33,31.50,-6.20,1.39,32292
1.53,-11.89,0.73,-2.32,2.21,-0.28,29.58,-8.58,4.78,32327
-1.12,-9.94,2.21,-1.75,0.95,0.04,28.72,-10.08,5.48,32361
-1.12,-10.44,2.83,-0.97,-0.58,0.14,29.03,-11.37,4.69,32395
2.95,-10.02,3.38,-0.48,-1.63,-0.15,31.26,-11.72,4.49,32429
4.06,-10.00,2.23,0.21,-2.85,-0.49,33.70,-11.79,1.72,32463
6.97,-10.55,1.32,0.50,-3.46,-0.79,37.30,-10.10,-3.07,32498
3.30,-10.77,4.59,0.44,-3.05,-1.01,38.88,-8.65,-6.85,32532
3.30,-9.48,5.14,1.18,-3.74,-0.63,40.66,-7.16,-11.75,32566
2.62,-12.84,0.36,1.42,-3.86,-0.72,41.96,-5.20,-18.06,32600
4.85,-11.45,0.62,1.42,-3.71,-1.42,42.24,-3.20,-23.78,32634
4.79,-11.76,-2.99,1.55,-3.42,-1.37,37.53,-0.79,-29.70,32668
3.49,-11.73,-1.71,1.67,-3.15,-1.34,39.39,1.24,-35.49,32703
3.85,-8.71,0.75,2.04,-3.21,-1.16,37.24,1.93,-40.56,32737
6.19,-8.77,-3.22,2.03,-2.70,-0.89,34.33,1.96,-45.22,32771
5.33,-8.09,-5.99,1.63,-1.63,-0.68,32.91,1.59,-47.49,32805
5.08,-6.08,-2.71,1.34,-0.59,-0.21,31.98,1.11,-48.90,32839
5.37,-6.90,-2.83,1.19,0.03,0.03,31.99,-0.41,-49.11,32874
6.30,-6.98,-4.70,1.11,0.09,-0.26,31.50,-0.96,-49.99,32908
8.53,-3.28,-6.30,1.04,0.61,-0.55,31.25,-0.95,-49.62,32942
9.27,-6.96,-8.21,0.67,1.24,-0.51,31.96,-0.83,-48.64,32976
6.86,-7.12,-6.77,0.19,2.19,-0.75,32.61,0.20,-46.55,33010
4.43,-6.56,-10.60,-0.44,3.25,-0.51,33.79,1.62,-41.08,33044
5.25,-9.61,-10.50,-0.83,3.81,-0.48,34.81,2.62,-36.06,33079
2.78,-8.68,-11.15,-1.39,4.33,-0.60,35.87,3.27,-29.03,33113
2.39,-9.20,-14.29,-2.06,5.09,-0.23,35.27,3.36,-22.19,33147
2.09,-12.00,-12.53,-2.82,5.51,-0.17,33.66,2.13,-14.02,33181
-1.13,-14.37,-9.97,-3.81,5.72,-0.68,30.84,0.38,-6.26,33215
-1.10,-11.09,-4.00,-3.86,3.78,-0.68,27.65,-2.85,0.69,33250
-3.16,-14.83,-1.03,-3.17,2.41,-0.52,24.58,-5.70,3.77,33284
-1.07,-12.79,4.91,-2.21,0.18,-0.91,24.00,-7.26,4.57,33318
-4.26,-12.98,10.30,-1.06,-1.52,-0.42,24.98,-8.54,3.79,33352
3.33,-12.85,10.37,0.40,-3.48,-0.16,27.96,-8.87,0.60,33386
2.78,-11.49,7.57,1.16,-4.15,-0.23,31.37,-8.67,-3.42,33420
1.41,-11.34,5.02,1.45,-4.22,-0.35,34.05,-7.66,-9.06,33455
2.18,-9.02,1.68,1.62,-4.45,-0.95,36.39,-6.09,-14.56,33489
2.25,-10.02,2.06,1.99,-5.06,-1.49,37.37,-4.05,-21.12,33523
4.46,-11.56,1.72,2.04,-5.09,-1.97,36.73,-1.23,-29.74,33557
5.46,-12.38,2.95,2.49,-4.95,-2.08,35.05,0.60,-36.52,33591
5.00,-9.17,-2.05,2.56,-4.31,-1.95,31.73,1.55,-42.21,33625
5.07,-9.57,-3.77,2.22,-2.61,-1.36,28.33,1.84,-47.43,33660
4.93,-8.66,-5.33,1.98,-1.36,-1.02,26.35,1.32,-50.99,33694
6.81,-7.53,-5.99,1.51,-0.34,-0.77,24.99,0.88,-51.15,33728
5.38,-6.38,-7.12,0.91,0.98,-0.37,25.68,0.42,-50.34,33762
4.60,-5.39,-9.97,0.57,1.79,-0.13,26.51,-0.26,-49.06,33796
4.13,-6.00,-11.54,0.11,2.70,0.20,28.78,-0.83,-45.75,33831
5.81,-8.67,-8.27,-0.77,4.13,0.48,31.13,-1.18,-41.61,33865
5.26,-8.03,-5.88,-1.27,4.65,0.07,33.53,-2.41,-34.42,33899
3.75,-7.36,-5.96,-1.41,4.19,-0.14,34.87,-2.35,-29.44,33933
4.41,-8.26,-7.47,-1.34,3.38,-0.11,35.65,-2.66,-24.45,33967
3.48,-8.98,-8.69,-1.62,3.42,0.10,36.52,-3.62,-18.34,34001
1.24,-9.18,-6.77,-2.24,3.82,-0.31,36.07,-4.38,-13.62,34036
2.89,-9.43,-6.43,-2.68,3.42,-0.52,34.57,-5.33,-8.83,34070
0.09,-12.62,-3.63,-2.66,2.77,-0.39,33.35,-6.97,-3.77,34104
0.64,-13.62,-0.39,-2.48,1.42,-0.90,32.55,-7.76,-0.01,34138
-2.67,-11.12,5.86,-1.74,0.05,-0.56,32.24,-8.26,0.42,34172
1.12,-12.41,10.22,-1.00,-1.18,0.10,33.35,-8.94,-0.48,34207
1.91,-10.63,10.69,-0.13,-2.21,0.31,34.98,-9.41,-2.18,34241
0.25,-11.68,4.24,0.65,-3.05,0.03,37.77,-9.12,-5.73,34275
5.82,-9.84,-1.51,1.18,-3.82,-0.21,40.02,-8.21,-11.01,34309
4.96,-7.92,-0.18,1.05,-3.57,-0.76,41.46,-6.66,-16.15,34343
3.27,-9.60,-2.64,1.24,-3.81,-0.90,41.65,-4.90,-21.18,34377
7.65,-10.31,1.78,1.29,-3.74,-1.25,41.19,-3.42,-26.16,34412
5.38,-9.58,2.14,1.67,-3.67,-1.40,40.16,-0.86,-32.53,34446
6.83,-10.72,0.78,1.98,-3.73,-1.34,38.03,0.47,-37.11,34480
7.75,-9.81,-1.90,2.07,-3.26,-1.56,35.74,1.53,-43.25,34514
7.08,-6.92,0.26,1.97,-2.27,-1.02,32.62,1.97,-45.89,34548
6.59,-7.05,-4.55,1.81,-1.76,-0.60,31.15,1.37,-49.36,34583
7.16,-5.55,-7.26,1.47,-0.75,-0.78,29.55,1.02,-50.22,34617
7.71,-4.75,-7.30,1.08,0.12,-0.69,29.17,1.20,-50.56,34651
5.83,-6.89,-6.89,0.55,1.44,-0.40,29.83,1.10,-48.82,34685
4.93,-6.50,-8.56,0.22,2.51,-0.09,31.76,1.46,-45.48,34719
2.97,-8.35,-10.74,-0.22,3.29,-0.08,33.40,1.68,-41.45,34753
2.04,-5.33,-11.62,-0.76,4.06,-0.45,35.02,2.57,-35.47,34788
5.69,-9.38,-9.83,-1.29,4.31,-0.22,35.72,4.22,-29.55,34822
1.34,-10.54,-15.49,-1.73,4.48,-0.65,34.57,4.33,-23.56,34856
-17.38,1.22,1.61,-2.20,4.57,-0.67,31.88,3.65,-15.71,34890
14.89,-14.60,-0.99,-1.83,2.14,-0.26,29.01,1.84,-12.42,34924
-1.90,-10.60,-5.98,-2.18,3.53,-1.75,26.06,0.48,-8.49,34958
3.49,-7.49,-1.95,-1.88,1.83,-1.06,24.03,-1.51,-6.81,34993
6.84,-13.57,0.21,-1.67,2.14,-0.19,23.11,-4.06,-4.24,35027
2.93,-11.69,-2.23,-1.73,1.73,-0.94,21.70,-6.04,-2.85,35061
1.17,-10.03,-3.97,-1.61,1.73,-0.39,21.28,-7.70,-2.47,35095
0.80,-11.28,-4.52,-1.59,1.72,-0.09,20.68,-9.31,-0.10,35129
3.90,-8.97,-5.02,-1.71,1.91,-0.48,19.39,-10.77,1.30,35164
2.52,-10.07,-0.65,-1.24,1.49,-0.05,17.63,-12.36,2.54,35198
5.41,-9.96,-0.04,-0.89,0.70,-0.04,17.17,-13.04,2.40,35232
7.19,-6.81,-2.20,-0.72,0.41,0.03,16.94,-13.52,3.13,35266
8.74,-7.08,-3.25,-0.75,0.81,0.19,16.27,-14.56,3.35,35300
8.20,-8.10,-4.98,-1.01,1.20,-0.08,14.60,-15.49,4.84,35334
8.68,-8.01,-5.27,-1.34,1.54,-0.55,13.05,-15.77,5.35,35369
8.13,-7.42,-4.51,-1.52,1.86,-0.65,10.03,-17.11,6.08,35403
1.54,-8.29,-4.76,-1.48,1.82,-0.64,8.26,-18.75,5.69,35437
2.76,-9.07,-6.86,-1.70,2.84,-0.61,5.58,-19.98,6.23,35471
6.10,-10.09,-0.44,-2.06,5.54,-0.64,-0.82,-22.07,5.28,35505
0.31,-9.65,3.22,-1.58,3.44,-0.47,-5.07,-23.85,3.57,35540
-1.14,-7.05,-0.22,-0.77,2.54,-0.13,-7.50,-24.93,2.48,35574
7.23,-8.85,-1.66,-0.46,1.90,0.12,-9.81,-25.46,1.56,35608
-1.73,-8.59,-1.36,-0.38,1.51,0.02,-12.09,-25.93,0.56,35642
1.52,-8.23,-1.85,-0.54,0.60,0.06,-12.99,-26.67,-0.45,35676
18.78,-19.56,-7.19,-0.63,-0.76,-0.42,-13.21,-27.00,-1.91,35710
4.02,-12.07,2.75,-0.70,-1.55,0.13,-12.89,-27.76,-1.80,35745
5.22,-10.49,-1.74,-0.81,-0.25,0.42,-12.58,-28.81,-2.51,35779
6.98,-14.17,4.53,-0.73,0.34,0.51,-12.80,-28.54,-2.88,35813
7.71,-9.70,1.09,-0.55,0.06,-0.84,-13.34,-29.67,-3.93,35847
5.13,-9.54,3.73,-0.31,-0.30,-0.81,-13.08,-30.12,-4.12,35881
9.70,-5.78,-0.04,-0.05,-0.53,-0.47,-12.76,-30.17,-4.11,35916
9.77,-5.92,-0.61,-0.19,0.15,-0.28,-12.50,-30.71,-5.01,35950
8.07,-5.22,-0.86,-0.48,0.71,-0.33,-13.23,-30.44,-6.33,35984
7.66,-6.57,-3.72,-0.55,0.62,-0.38,-13.48,-30.47,-7.07,36018
7.80,-7.18,-5.60,-0.67,1.04,-0.65,-13.96,-30.63,-8.46,36052
6.34,-5.72,-7.40,-1.30,2.21,-0.43,-15.20,-30.72,-10.64,36086
6.57,-8.07,-7.48,-1.63,3.05,-0.11,-17.22,-30.42,-14.15,36121
6.04,-9.56,-7.52,-1.70,3.24,0.06,-19.09,-28.98,-17.51,36155
6.35,-10.43,-10.88,-2.16,4.21,-0.04,-21.35,-28.30,-21.75,36189
6.34,-10.97,-11.40,-2.89,4.94,-1.14,-23.34,-27.40,-26.66,36223
3.94,-7.27,-10.83,-2.83,3.95,-1.40,-25.30,-27.19,-30.14,36257
5.54,-22.29,2.06,-2.41,2.86,-0.39,-26.64,-27.67,-34.65,36291
8.08,-4.77,-1.42,-1.42,1.42,-1.09,-27.54,-29.63,-37.01,36326
-24.73,-17.41,2.24,-2.02,1.47,-0.19,-27.62,-30.09,-39.70,36360
14.99,-8.56,-6.81,-0.98,1.29,-1.01,-27.05,-32.24,-40.70,36394
1.50,-11.91,-6.85,-0.49,0.79,-0.15,-26.35,-32.75,-42.22,36428
4.91,-11.65,-4.58,-0.86,1.03,0.26,-25.74,-33.54,-42.33,36462
1.51,-10.83,-1.95,-1.43,2.85,0.38,-24.76,-33.02,-45.40,36497
-6.02,-13.95,-5.98,-1.73,3.36,-0.05,-22.65,-32.21,-49.01,36531
-5.37,-11.99,-9.75,-2.32,2.13,-0.38,-19.91,-30.68,-52.57,36565
-5.09,-12.07,-7.99,-3.25,4.72,0.62,-17.01,-28.16,-56.46,36599
9.44,-11.92,-5.92,-3.91,5.82,0.67,-11.53,-22.87,-60.76,36633
2.37,-7.52,4.72,-3.15,1.90,-0.85,-5.14,-19.92,-62.91,36667
6.57,-8.30,0.94,-2.94,0.70,-0.52,-3.77,-16.33,-63.58,36702
-0.86,-11.29,3.06,-1.95,0.25,-0.25,-2.84,-13.05,-64.15,36736
4.04,-10.61,1.49,-1.27,-1.13,-0.42,-4.03,-11.96,-64.64,36770
1.55,-12.03,2.68,-0.97,-1.24,-0.62,-5.64,-10.68,-64.48,36804
2.74,-11.47,7.07,-0.69,-1.51,-0.49,-7.42,-9.38,-63.30,36838
2.62,-13.72,7.15,0.25,-2.76,-0.49,-10.36,-9.85,-62.86,36873
1.41,-14.55,8.51,1.47,-4.36,-0.98,-15.40,-12.25,-60.07,36907
0.87,-15.41,3.74,2.51,-5.57,-1.90,-22.01,-15.64,-57.42,36941
0.27,-10.40,0.75,2.98,-6.14,-2.23,-27.00,-19.79,-51.26,36975
-1.50,-9.28,-1.23,3.27,-5.86,-1.89,-31.07,-25.01,-43.25,37009
-0.28,-10.98,-3.57,3.19,-5.49,-1.63,-32.56,-27.86,-35.85,37043
-0.08,-13.10,-8.78,2.46,-4.28,-1.40,-33.15,-30.69,-28.63,37078
-1.06,-6.99,-4.63,1.92,-3.20,-1.52,-32.08,-32.58,-23.76,37112
3.57,-3.80,-3.54,2.04,-3.01,-0.79,-31.38,-33.57,-19.06,37146
14.26,-11.86,-2.12,1.30,-2.43,-0.10,-30.50,-33.19,-15.00,37180
7.80,-4.50,-2.68,0.90,-0.30,-1.22,-29.41,-34.27,-13.50,37214
8.05,-7.76,-2.70,0.94,-0.14,-1.07,-28.30,-35.33,-13.26,37249
7.36,-6.58,-5.57,0.89,0.07,-1.16,-27.38,-35.82,-12.13,37283
7.61,-6.51,-6.94,0.72,0.60,-1.06,-26.15,-36.70,-13.07,37317
8.32,-5.47,-8.91,0.24,1.35,-1.07,-25.64,-38.18,-13.20,37351
7.39,-6.60,-11.43,-0.97,3.24,-0.39,-26.05,-38.80,-16.15,37385
0.60,-12.37,-16.06,-2.01,5.25,0.52,-26.57,-38.47,-24.39,37419
-1.40,-10.59,-17.96,-2.88,6.48,0.85,-27.42,-38.29,-32.10,37454
-6.03,-11.49,-16.85,-3.99,7.12,1.41,-25.59,-35.82,-41.60,37488
-0.20,-12.41,-11.56,-4.48,7.09,1.03,-20.81,-31.89,-51.68,37522
-0.03,-12.99,-5.82,-4.46,5.88,-0.07,-14.76,-28.00,-57.91,37556
-1.78,-9.81,-8.85,-4.23,3.74,-0.87,-9.72,-24.29,-61.27,37590
-1.88,-12.70,2.44,-3.16,1.76,-0.96,-5.66,-20.21,-62.85,37625
-1.68,-15.61,7.70,-1.16,-1.91,-1.34,-6.23,-18.33,-63.21,37659
5.87,-11.41,12.57,0.52,-5.04,-1.98,-11.69,-19.15,-61.39,37693
2.04,-14.01,12.98,1.07,-5.06,-2.13,-16.14,-21.29,-58.29,37727
2.73,-12.39,8.61,1.83,-5.53,-2.17,-20.67,-23.22,-54.57,37761
0.49,-13.64,3.97,2.44,-5.81,-1.67,-25.08,-26.88,-47.19,37795
1.95,-17.14,0.63,2.74,-5.95,-1.69,-27.55,-29.52,-40.63,37830
3.80,-12.82,-0.41,2.83,-5.70,-2.11,-28.88,-32.32,-31.76,37864
1.90,-13.27,0.10,3.23,-5.57,-1.60,-28.69,-33.88,-24.73,37898
-9.83,-13.47,-19.66,2.63,-4.97,-2.01,-27.26,-34.79,-16.92,37932
0.49,-0.58,-8.78,1.66,-2.55,-3.84,-22.49,-37.02,-11.34,37966
-2.20,-8.98,-0.26,2.02,-2.50,-2.20,-18.99,-37.55,-8.80,38000
8.42,-16.61,-8.78,1.86,-2.24,-1.50,-16.25,-37.42,-4.44,38035
1.76,-2.63,1.09,1.50,-1.31,-2.00,-13.94,-37.34,-2.24,38069
-0.76,-7.23,1.33,2.15,-1.78,-0.88,-11.96,-36.06,-0.15,38103
2.14,-10.97,-4.26,1.25,-0.39,-0.73,-10.83,-34.73,2.34,38137
3.43,-3.49,-2.91,1.34,-0.32,-0.55,-10.08,-34.76,2.76,38171
7.80,-10.10,-8.07,1.00,0.40,-0.20,-10.07,-33.63,3.74,38206
7.92,-4.57,-4.21,0.66,1.33,-0.59,-11.44,-33.03,3.90,38240
10.97,-4.44,-7.20,0.48,2.12,-0.65,-13.07,-32.72,3.64,38274
11.25,-5.40,-12.04,0.02,2.57,-0.76,-15.62,-33.22,3.33,38308
4.13,-7.73,-17.86,-0.61,3.65,-0.64,-18.50,-34.14,1.45,38342
-1.70,-12.90,-19.50,-1.72,5.22,-0.18,-21.51,-36.28,-4.03,38376
-2.01,-11.02,-11.77,-2.72,5.81,0.23,-25.58,-38.23,-13.37,38411
-4.74,-11.25,-10.23,-3.40,6.35,0.59,-27.81,-38.70,-21.73,38445
-2.84,-13.47,-1.99,-3.40,5.78,0.52,-27.97,-37.90,-32.18,38479
-2.05,-11.22,-0.29,-2.97,4.78,-0.03,-26.53,-36.61,-39.45,38513
0.13,-12.37,2.35,-2.56,4.06,-0.18,-24.25,-34.20,-44.80,38547
-4.86,-8.16,1.17,-1.88,2.52,-0.32,-21.15,-32.37,-49.42,38582
-3.87,-9.40,1.75,-0.83,0.24,0.10,-20.84,-30.81,-50.23,38616
2.66,-10.31,-2.62,-0.49,-1.15,-0.31,-21.63,-30.01,-48.58,38650
4.29,-7.65,-0.41,-0.29,-1.57,-0.95,-23.08,-29.89,-48.49,38684
5.89,-9.15,-1.16,-0.34,-1.78,-1.10,-24.26,-30.01,-48.07,38718
3.63,-13.05,2.74,-0.29,-1.61,-1.34,-24.79,-30.99,-46.14,38752
6.39,-9.64,3.10,-0.24,-1.60,-1.19,-25.26,-31.51,-45.48,38787
0.87,-13.06,2.74,0.16,-1.78,-0.59,-26.00,-32.07,-44.37,38821
2.30,-11.55,3.18,0.63,-2.45,-0.46,-27.59,-32.48,-41.99,38855
1.50,-11.57,1.48,0.91,-2.47,-0.47,-29.03,-33.60,-39.10,38889
2.20,-12.00,0.45,1.09,-2.63,-0.56,-30.49,-33.92,-35.18,38923
2.44,-12.04,-1.62,1.13,-2.47,-0.72,-31.12,-35.12,-32.59,38958
4.74,-8.73,-2.03,1.27,-2.41,-1.04,-30.88,-36.63,-28.09,38992
4.85,-6.04,-1.24,1.51,-2.34,-0.90,-29.87,-37.62,-24.41,39026
4.00,-5.93,-1.33,1.81,-2.32,-0.34,-29.28,-37.96,-20.55,39060
5.30,-8.87,-1.13,1.80,-2.13,-0.10,-29.06,-38.32,-16.09,39094
6.37,-10.39,-1.98,1.68,-1.88,-0.18,-28.22,-37.78,-12.53,39128
6.63,-8.88,-2.37,1.67,-1.74,-0.46,-27.35,-37.87,-9.43,39163
7.23,-5.33,-1.39,1.58,-1.34,-0.50,-26.10,-36.96,-6.74,39197
7.59,-5.78,-1.23,1.64,-1.26,-0.42,-24.88,-36.85,-5.31,39231
6.32,-7.45,-0.68,1.74,-1.45,-0.43,-23.46,-36.22,-2.05,39265
5.51,-6.28,-1.41,1.26,-0.89,-0.42,-22.41,-35.19,-0.45,39299
3.59,-6.94,-2.32,0.98,-0.08,-0.34,-22.38,-35.36,0.60,39333
5.57,-8.07,-2.42,0.95,0.16,-0.06,-22.01,-34.45,1.81,39368
5.88,-9.77,-3.05,0.51,0.78,-0.18,-22.81,-33.82,1.72,39402
4.20,-8.93,-2.92,0.22,1.34,-0.38,-23.41,-34.22,1.02,39436
3.98,-8.21,-4.55,0.11,1.62,-0.39,-25.21,-34.19,-0.48,39470
4.86,-8.03,-4.74,-0.18,2.14,-0.47,-26.47,-35.50,-2.50,39504
2.43,-8.18,-10.14,-0.61,3.35,-0.22,-28.22,-36.48,-6.97,39539
3.46,-6.73,-8.51,-1.00,3.32,-0.30,-30.09,-37.61,-11.46,39573
6.85,-8.49,-8.08,-1.54,4.48,-0.25,-31.51,-39.14,-17.20,39607
5.90,-10.21,-6.58,-2.32,5.07,-0.26,-31.69,-40.13,-25.94,39641
1.85,-10.26,-6.21,-2.48,4.98,-0.35,-30.09,-40.38,-33.10,39675
0.23,-8.96,-5.36,-2.39,3.95,-0.39,-28.56,-39.78,-43.92,39709
-0.58,-11.35,-2.65,-2.25,3.32,-0.43,-25.36,-38.10,-46.02,39744
-3.61,-8.51,-1.15,-1.73,2.53,-0.45,-23.06,-37.78,-49.74,39778
0.13,-11.96,0.50,-1.17,0.41,-0.36,-21.19,-36.41,-50.63,39812
0.89,-9.82,0.03,-0.76,-0.81,-0.68,-20.96,-35.82,-51.13,39846
2.11,-7.55,0.57,-0.68,-1.15,-0.54,-20.75,-35.40,-51.20,39880
-0.10,-9.80,1.08,-0.56,-1.04,-0.16,-21.60,-33.70,-50.03,39915
2.31,-10.58,3.72,-0.37,-2.02,-0.54,-23.08,-33.05,-49.17,39949
0.91,-9.82,7.14,0.03,-2.66,-0.74,-24.64,-34.08,-46.61,39983
3.89,-11.81,8.79,0.77,-3.90,-0.59,-27.35,-34.54,-43.19,40017
0.64,-13.43,9.05,1.12,-4.06,-0.78,-28.69,-34.99,-38.66,40051
-11.09,-15.53,7.94,2.21,-5.71,-0.87,-30.17,-37.09,-30.09,40085
5.59,-7.79,-2.35,1.80,-4.23,-0.98,-29.95,-38.04,-24.54,40120
3.46,-10.66,-2.39,1.71,-3.82,-1.20,-29.07,-38.72,-19.94,40154
5.77,-9.00,-5.87,1.77,-3.12,-0.73,-26.81,-39.99,-14.25,40188
3.56,-9.51,-2.78,1.46,-1.97,-0.66,-25.43,-39.71,-11.87,40222
6.91,-4.32,2.59,1.77,-2.59,-0.87,-23.15,-39.49,-7.07,40256
8.52,-8.05,-6.69,1.22,-1.20,-0.19,-22.16,-38.53,-4.84,40291
5.82,-6.45,-4.05,0.91,-0.32,-0.47,-21.53,-38.10,-4.06,40325
6.34,-5.36,-1.87,1.00,-0.19,-0.52,-20.62,-37.42,-3.60,40359
9.07,-6.46,-1.59,0.77,0.28,-0.53,-20.34,-36.74,-3.49,40393
7.56,-6.57,-2.86,0.64,0.59,-0.55,-20.29,-36.36,-2.98,40427
6.16,-7.17,-3.98,0.35,1.04,-0.57,-20.52,-36.48,-3.04,40461
7.11,-6.95,-3.67,0.11,1.44,-0.55,-21.22,-36.09,-3.38,40496
7.34,-7.06,-4.25,-0.04,1.94,-0.51,-22.43,-36.57,-5.47,40530
6.64,-7.11,-7.50,-0.20,2.24,-0.57,-23.60,-36.64,-7.60,40564
6.84,-7.65,-11.16,-0.40,2.98,-0.38,-24.54,-36.48,-10.35,40598
3.86,-10.03,-12.10,-0.64,3.26,-0.54,-26.24,-37.17,-13.42,40632
3.09,-8.25,-12.82,-1.32,3.77,-0.44,-27.61,-37.77,-18.11,40666
-0.15,-12.45,-10.63,-2.02,4.73,-0.04,-28.59,-37.78,-25.53,40701
0.38,-12.57,-5.58,-2.47,4.59,-0.19,-28.63,-37.30,-32.20,40735
-2.23,-12.54,-3.53,-2.62,4.55,-0.10,-27.65,-36.67,-38.60,40769
-1.87,-12.12,-2.75,-2.72,4.10,-0.10,-25.45,-35.00,-45.89,40803
-1.07,-10.47,-3.07,-2.84,3.91,-0.23,-22.24,-33.66,-52.02,40837
-1.04,-9.86,-4.71,-2.58,2.45,-0.34,-19.32,-31.47,-55.36,40872
0.51,-10.01,-2.87,-2.48,1.28,-0.59,-17.39,-29.09,-58.43,40906
2.14,-8.29,-2.40,-2.26,-0.01,-0.71,-16.60,-27.21,-59.94,40940
1.32,-12.20,3.25,-2.07,-0.25,-0.59,-16.85,-25.04,-61.08,40974
0.26,-13.77,7.58,-1.30,-2.00,-0.98,-18.33,-24.42,-60.38,41008
0.46,-13.99,14.32,-0.10,-3.72,-1.11,-21.82,-25.31,-58.24,41042
1.52,-13.51,14.28,0.89,-5.00,-1.03,-25.96,-26.85,-53.71,41077
3.24,-16.53,9.15,1.96,-5.78,-1.28,-30.68,-29.57,-48.47,41111
0.86,-13.60,2.59,2.90,-6.42,-2.23,-33.66,-34.22,-38.29,41145
-1.24,-11.98,0.49,3.34,-6.53,-2.42,-33.70,-38.31,-28.12,41179
-0.61,-11.15,-0.95,3.82,-6.40,-2.11,-31.32,-40.65,-18.31,41213
4.09,-11.68,-7.20,2.79,-4.47,-1.76,-27.05,-41.65,-9.84,41248
5.27,-5.95,-3.72,2.27,-3.27,-1.80,-22.73,-42.09,-4.69,41282
6.10,-7.32,-7.20,1.64,-1.49,-1.23,-19.80,-41.58,-2.12,41316
7.30,-8.61,-3.16,1.13,-0.20,-1.25,-17.58,-41.49,-2.02,41350
6.51,-5.61,-2.63,0.91,0.62,-0.87,-17.19,-40.70,-1.91,41384
8.30,-7.12,-11.11,0.48,1.80,-0.37,-18.24,-40.08,-2.66,41418
6.78,-5.73,-12.23,0.09,2.75,-0.56,-20.32,-39.40,-4.28,41453
4.92,-6.27,-14.09,-0.29,3.22,-0.55,-22.07,-39.67,-7.59,41487
2.62,-9.32,-15.78,-1.47,4.86,-0.15,-24.61,-40.35,-12.53,41521
-0.86,-12.54,-17.04,-2.46,5.79,0.17,-26.29,-40.69,-19.77,41555
-4.31,-10.22,-13.11,-3.65,6.26,0.19,-27.70,-40.60,-30.30,41589
-0.94,-13.37,-3.40,-3.94,5.87,0.25,-26.19,-39.04,-39.75,41624
-1.47,-14.35,-0.26,-3.66,4.26,-0.26,-23.49,-36.61,-47.38,41658
-1.89,-8.75,2.90,-2.63,1.51,-0.08,-21.44,-34.61,-50.45,41692
-0.02,-10.64,2.87,-1.90,0.66,0.51,-20.72,-32.27,-51.75,41726
4.24,-10.70,3.54,-1.46,-0.05,0.04,-21.15,-30.27,-53.36,41760
-0.07,-9.43,5.98,-0.70,-1.21,-0.44,-21.32,-29.90,-53.54,41794
-0.26,-11.03,5.61,-0.03,-2.35,-0.37,-22.77,-29.80,-52.28,41829
2.83,-11.74,4.44,0.88,-3.80,-0.48,-25.48,-30.78,-48.03,41863
2.09,-12.81,1.87,0.96,-3.64,-0.70,-26.98,-31.34,-44.29,41897
2.90,-12.09,0.78,1.18,-3.77,-0.98,-28.90,-32.46,-38.99,41931
4.18,-10.24,-0.15,1.50,-3.87,-1.09,-29.66,-34.01,-34.64,41965
4.67,-10.77,0.01,1.67,-3.83,-1.21,-29.51,-35.55,-29.87,42000
3.62,-10.56,-0.45,1.85,-3.63,-1.50,-28.35,-36.71,-23.66,42034
3.87,-8.92,1.74,2.33,-3.69,-1.38,-27.26,-37.42,-18.33,42068
5.60,-10.54,-1.27,2.28,-3.31,-1.26,-24.86,-37.65,-12.88,42102
7.46,-7.40,-3.11,2.11,-2.53,-1.46,-22.89,-37.93,-9.49,42136
7.63,-7.87,-2.23,1.97,-1.67,-1.05,-21.13,-37.77,-6.37,42170
8.55,-8.66,-5.83,1.49,-0.75,-0.99,-19.69,-37.27,-4.17,42205
9.12,-5.79,-5.02,1.14,0.32,-0.98,-19.29,-37.11,-3.27,42239
5.03,-5.33,-9.23,0.88,1.56,-0.46,-19.60,-36.69,-3.17,42273
6.77,-5.55,-10.21,0.32,2.51,-0.29,-21.89,-36.01,-5.69,42307
6.05,-7.51,-11.81,-0.56,4.00,-0.16,-24.22,-36.39,-7.80,42341
2.72,-8.23,-15.56,-0.90,4.38,-0.09,-27.05,-36.98,-12.36,42375
1.22,-9.37,-18.02,-2.27,5.60,-0.08,-30.17,-37.75,-19.44,42410
0.39,-10.61,-13.22,-3.52,6.05,-0.22,-31.28,-38.57,-27.67,42444
0.70,-12.74,-7.51,-3.92,5.66,-0.31,-30.42,-38.31,-37.78,42478
-2.06,-12.41,-3.23,-3.65,4.27,-0.57,-28.12,-38.31,-45.86,42512
-2.08,-11.04,1.14,-2.76,1.75,-0.33,-25.72,-37.20,-52.06,42546
-1.77,-13.36,3.62,-1.80,0.07,-0.11,-24.55,-36.51,-54.27,42581
0.76,-10.48,3.73,-0.95,-1.24,-0.17,-24.88,-36.82,-53.68,42615
0.53,-9.15,5.65,-0.48,-1.70,-0.11,-25.67,-36.98,-52.76,42649
4.80,-12.12,4.92,0.06,-2.51,-0.11,-26.91,-37.05,-50.18,42683
5.44,-10.19,2.72,0.39,-2.86,-0.58,-27.84,-38.26,-46.51,42717
6.11,-10.16,2.46,0.63,-2.96,-0.36,-29.38,-39.07,-42.94,42751
4.73,-12.11,3.18,0.83,-3.01,-0.49,-29.45,-40.25,-39.29,42786
1.14,-12.29,5.30,1.24,-3.83,-1.32,-28.95,-41.76,-34.24,42820
0.47,-10.56,4.62,2.14,-4.64,-1.51,-27.93,-42.91,-28.56,42854
4.01,-11.83,1.59,2.54,-4.70,-1.66,-26.10,-44.34,-20.32,42888
3.48,-10.92,-4.30,2.26,-3.37,-1.43,-23.44,-44.87,-15.45,42922
5.13,-10.28,-6.06,1.96,-2.49,-1.41,-20.68,-44.67,-12.01,42957
4.67,-6.35,-3.80,1.68,-1.45,-1.18,-18.30,-44.75,-8.87,42991
6.84,-7.56,-5.94,1.49,-0.67,-0.68,-16.85,-43.89,-7.80,43025
6.84,-4.63,-6.05,0.91,0.68,-0.51,-16.16,-43.17,-6.85,43059
6.24,-6.31,-8.38,0.73,1.31,-0.24,-16.97,-42.14,-7.48,43093
6.23,-7.02,-10.59,0.10,2.60,-0.02,-17.68,-41.70,-8.30,43127
7.93,-8.85,-8.29,-0.51,3.55,-0.25,-19.75,-41.32,-12.32,43162
3.57,-5.48,-11.79,-1.38,4.36,-0.24,-20.80,-40.85,-16.66,43196
-2.45,-6.45,-14.09,-1.92,4.67,0.13,-22.43,-40.15,-22.84,43230
-3.31,-10.85,-9.43,-2.92,5.54,0.59,-22.86,-38.80,-29.38,43264
1.15,-9.95,-5.84,-3.22,4.86,-0.03,-22.73,-37.36,-36.57,43298
1.34,-9.15,-5.31,-3.50,4.63,-0.11,-20.83,-35.69,-42.94,43333
1.84,-11.33,1.02,-2.78,1.90,-0.33,-19.64,-33.84,-46.77,43367
-0.35,-11.94,2.50,-2.01,0.44,-0.35,-19.09,-32.65,-48.13,43401
1.00,-11.29,6.20,-1.51,-0.59,-0.36,-19.09,-31.76,-49.56,43435
-2.39,-11.54,8.04,-0.47,-1.86,-0.07,-20.05,-31.39,-49.58,43469
1.72,-12.43,5.53,0.43,-3.28,-0.24,-22.57,-31.54,-46.93,43503
2.84,-11.26,3.25,0.82,-3.66,-0.91,-24.63,-32.46,-43.93,43538
5.01,-9.07,1.81,1.05,-3.55,-0.65,-26.07,-33.28,-39.90,43572
6.17,-13.05,0.75,0.88,-2.95,-0.31,-27.58,-34.36,-36.63,43606
3.38,-14.52,-1.22,0.75,-2.45,-0.93,-28.54,-34.52,-33.48,43640
3.63,-12.33,3.65,1.03,-2.87,-1.51,-28.34,-36.82,-29.89,43674
5.11,-6.52,0.93,1.66,-3.09,-1.45,-27.73,-38.00,-26.81,43708
4.44,-8.76,-1.04,2.22,-3.03,-0.79,-27.00,-38.50,-22.58,43743
5.56,-12.87,0.94,2.41,-2.74,-0.65,-25.69,-38.78,-17.11,43777
7.71,-11.18,-5.83,1.71,-1.77,-1.32,-24.17,-39.05,-13.53,43811
3.75,-3.48,-0.84,2.25,-1.64,-1.20,-22.80,-39.87,-10.96,43845
9.74,-3.78,-0.29,2.58,-1.91,-0.65,-21.06,-39.11,-7.48,43879
10.98,-8.56,-9.02,1.79,-0.59,-0.38,-20.08,-38.02,-5.60,43914
9.28,-0.58,-8.56,1.26,1.11,-0.86,-19.54,-37.68,-5.77,43948
8.84,-3.14,-6.32,0.37,2.16,-0.44,-20.08,-37.90,-6.72,43982
6.21,-6.00,-9.30,-0.08,2.91,-0.51,-21.92,-36.71,-10.14,44016
3.83,-9.02,-13.05,-0.85,4.33,-0.52,-24.14,-36.52,-14.56,44050
-0.33,-10.50,-13.70,-1.60,5.36,-0.07,-26.07,-36.01,-19.96,44084
5.71,-11.31,-11.65,-2.42,6.15,0.01,-27.89,-34.55,-28.46,44119
1.76,-10.90,-11.59,-3.45,7.46,-0.33,-27.57,-34.10,-38.02,44153
6.00,-12.81,-5.37,-3.07,4.63,-0.64,-25.43,-33.65,-45.44,44187
-6.31,-9.14,-7.92,-2.92,2.52,-1.19,-22.81,-32.97,-50.73,44221
-0.29,-11.69,-4.50,-2.55,1.03,-0.90,-21.34,-32.05,-54.12,44255
0.01,-13.32,-0.79,-2.25,0.11,-1.24,-20.61,-30.82,-56.20,44290
-0.79,-10.86,2.07,-1.62,-1.03,-1.36,-20.37,-30.34,-56.49,44324
-0.24,-14.40,6.35,-0.65,-2.18,-0.99,-22.10,-30.43,-59.54,44358
3.95,-14.82,10.28,0.24,-3.52,-1.05,-24.20,-31.60,-53.77,44392
5.52,-13.71,11.97,0.68,-3.84,-1.21,-26.78,-33.12,-50.89,44426
3.44,-11.52,9.59,1.55,-4.32,-1.16,-29.52,-36.12,-45.70,44460
-1.18,-10.89,2.46,2.48,-4.97,-1.09,-30.61,-38.70,-38.44,44495
-0.16,-11.29,-1.57,2.61,-5.07,-1.47,-31.00,-40.37,-31.86,44529
3.37,-10.98,-4.32,2.50,-4.58,-1.71,-29.54,-43.15,-22.89,44563
3.62,-8.85,-3.56,2.47,-3.49,-1.59,-26.95,-44.99,-17.67,44597
4.36,-8.40,-2.16,2.55,-2.87,-1.19,-24.25,-45.09,-11.81,44631
9.76,-9.58,-2.25,2.76,-2.52,-0.94,-21.38,-45.07,-7.32,44666
8.96,-10.04,-3.90,2.54,-1.61,-0.92,-18.97,-43.93,-4.44,44700
9.03,-7.32,-3.38,1.92,-0.24,-0.75,-17.85,-42.63,-1.21,44734
9.78,-2.74,-4.61,1.26,1.07,-0.29,-17.30,-42.15,-1.27,44768
4.70,-4.87,-4.34,1.07,1.38,-0.12,-18.63,-41.17,-0.89,44802
7.60,-5.53,-4.30,0.73,1.61,-0.20,-19.34,-40.40,-2.22,44836
6.95,-7.25,-2.63,0.54,1.56,-0.38,-20.30,-39.78,-3.48,44871
6.95,-7.84,-2.76,0.47,1.48,-0.39,-20.64,-39.29,-5.70,44905
4.31,-5.56,-2.51,0.22,1.40,-0.41,-21.00,-39.37,-6.28,44939
4.31,-6.46,-4.04,-0.08,1.96,-0.21,-21.97,-38.41,-8.65,44973
2.42,-8.25,-5.58,-0.18,1.85,-0.07,-22.54,-37.50,-11.55,45007
5.17,-7.40,-6.24,-0.81,2.74,0.02,-24.19,-38.18,-13.78,45041
2.69,-8.31,-5.86,-1.32,3.49,0.03,-25.75,-36.96,-18.81,45076
2.56,-13.69,-1.56,-1.34,2.93,0.19,-26.67,-36.35,-22.89,45110
6.39,-11.68,-2.66,-1.76,2.94,-0.35,-26.86,-34.90,-27.27,45144
6.33,-7.05,0.05,-1.63,2.08,-0.72,-27.38,-34.52,-30.97,45178
3.45,-12.31,0.73,-1.21,1.42,-0.49,-27.39,-33.76,-34.27,45212
4.55,-9.21,1.45,-0.79,0.34,-0.90,-27.99,-33.62,-35.91,45247
4.30,-7.97,1.55,-0.54,-0.18,-0.87,-28.37,-34.42,-35.78,45281
8.11,-8.02,-0.75,-0.54,0.28,-0.95,-29.00,-35.81,-36.12,45315
2.32,-7.32,-2.51,-0.61,1.00,-0.70,-28.85,-36.95,-37.72,45349
1.02,-7.96,-1.45,-0.63,1.19,0.00,-28.49,-37.66,-39.83,45383
3.29,-9.98,-1.98,-0.46,0.76,-0.05,-28.19,-37.66,-42.17,45417
4.50,-7.86,-2.29,-0.58,1.11,-0.21,-27.83,-38.42,-42.77,45452
5.07,-7.02,-3.06,-0.81,1.55,-0.43,-27.00,-39.20,-46.23,45486
3.38,-9.11,-2.19,-0.83,1.34,-0.70,-24.92,-39.30,-47.35,45520
3.32,-9.85,-2.78,-0.84,1.26,-0.72,-23.90,-40.49,-49.11,45554
3.42,-9.11,-2.76,-0.87,1.40,-0.56,-21.69,-40.47,-51.26,45588
1.71,-10.99,-2.18,-0.81,1.46,-0.07,-19.80,-40.68,-53.60,45623
7.30,-9.78,-2.07,-0.91,1.54,-0.42,-18.42,-40.66,-55.23,45657
3.15,-8.26,-3.20,-0.87,1.49,-0.43,-16.03,-39.59,-56.50,45691
5.84,-10.93,-3.12,-0.82,1.67,-0.24,-14.10,-39.02,-58.39,45725
7.06,-8.65,-3.46,-1.06,1.75,-0.69,-11.22,-38.63,-59.51,45759
4.77,-8.41,-2.70,-1.02,1.52,-0.64,-8.54,-38.53,-61.02,45793
3.77,-9.37,-3.61,-1.14,1.62,-0.52,-5.69,-37.30,-62.10,45828
2.87,-9.57,-2.33,-1.25,1.65,-0.53,-2.85,-36.14,-63.20,45862
5.62,-9.55,-2.02,-1.16,1.48,-0.28,-0.67,-34.62,-64.06,45896
4.40,-10.69,-1.53,-1.13,1.33,-0.20,2.62,-33.47,-65.49,45930
4.45,-8.06,-1.62,-1.10,1.20,-0.75,4.60,-32.33,-65.64,45964
4.72,-7.75,-1.61,-1.01,1.08,-0.60,6.83,-30.44,-66.02,45999
6.97,-11.55,-1.29,-0.97,1.13,-0.21,9.06,-28.57,-66.34,46033
4.25,-8.92,-2.71,-1.19,1.36,-0.65,11.20,-27.20,-66.79,46067
4.31,-5.75,-2.65,-1.20,1.56,-0.34,14.29,-24.60,-66.08,46101
8.09,-12.77,-0.23,-1.15,1.38,-0.21,15.81,-22.87,-65.77,46135
2.87,-6.30,-2.18,-1.17,1.18,-0.66,17.92,-20.62,-65.36,46169
4.76,-10.02,-2.87,-1.16,1.39,-0.05,19.47,-18.58,-65.49,46204
4.39,-10.62,-2.48,-1.30,1.45,-0.14,21.27,-16.25,-64.79,46238
4.33,-6.57,-0.83,-1.24,1.38,-0.07,23.21,-14.37,-63.27,46272
5.80,-11.33,-0.81,-1.00,1.14,0.11,24.70,-12.61,-62.10,46306
5.23,-8.37,-1.90,-0.93,0.78,-0.62,25.67,-11.14,-61.71,46340
4.27,-6.28,-1.86,-0.94,0.80,-0.57,26.29,-9.31,-60.06,46375
4.74,-9.70,-1.56,-0.88,0.78,-0.23,26.86,-8.11,-59.30,46409
3.52,-9.64,-1.21,-0.95,0.94,-0.39,27.46,-6.91,-57.75,46443
3.32,-8.47,-0.38,-0.98,1.00,-0.39,28.30,-4.74,-56.59,46477
4.24,-8.05,-0.85,-0.96,1.02,-0.11,29.49,-3.62,-55.06,46511
6.83,-10.48,-0.31,-0.94,1.05,0.03,30.34,-2.19,-52.86,46545
5.14,-10.04,-1.04,-0.95,1.07,-0.30,30.91,-1.40,-51.48,46580
3.75,-6.60,-1.91,-0.94,1.20,-0.19,31.67,0.25,-49.49,46614
5.09,-10.29,-0.59,-0.97,1.19,0.09,32.91,1.34,-46.54,46648
4.72,-7.31,-0.81,-0.81,1.00,-0.19,33.47,2.28,-44.62,46682
6.66,-9.02,-2.25,-0.64,0.86,-0.11,34.14,2.66,-42.96,46716
6.05,-7.74,-2.37,-0.62,0.83,-0.36,34.67,3.14,-40.32,46750
3.92,-6.40,-3.31,-0.86,1.27,-0.38,34.84,4.02,-39.23,46785
5.23,-10.07,-1.74,-1.12,1.61,-0.07,35.11,4.38,-34.98,46819
7.39,-9.09,-1.03,-1.16,1.41,-0.26,35.43,4.43,-32.05,46853
4.45,-7.39,-0.66,-0.97,1.57,-0.26,35.56,5.06,-30.20,46887
4.67,-7.82,-1.12,-0.68,1.23,-0.22,36.19,5.36,-27.92,46921
7.39,-7.60,-2.48,-0.49,1.09,-0.31,36.47,5.55,-25.45,46956
6.38,-7.26,-3.79,-0.51,1.25,-0.20,35.88,5.52,-22.98,46990
6.52,-8.91,-3.70,-0.59,1.48,-0.08,35.76,5.38,-20.72,47024
6.25,-11.29,-4.00,-0.68,1.92,-0.06,34.99,4.46,-17.45,47058
5.01,-11.21,-4.56,-1.09,2.44,0.20,34.93,3.23,-14.67,47092
0.64,-14.27,-5.32,-1.42,3.40,0.43,34.58,1.46,-10.06,47126
-0.25,-13.46,-5.24,-1.80,3.63,0.39,32.94,-1.30,-4.17,47161
-1.81,-11.94,-4.96,-2.48,3.95,-0.03,30.71,-3.42,0.26,47195
-1.54,-9.78,-5.74,-2.90,4.17,-0.25,27.38,-6.52,5.10,47229
-1.08,-10.58,-3.75,-3.49,4.06,-0.12,23.21,-10.04,8.90,47263
1.89,-10.36,-0.27,-3.61,3.49,-0.29,19.26,-13.86,11.28,47297
1.48,-9.58,0.23,-3.20,2.48,-0.46,15.73,-18.74,13.04,47332
-1.37,-9.89,3.92,-2.53,0.99,-0.24,14.24,-21.05,13.12,47366
-3.49,-14.74,5.40,-1.53,-0.30,-0.36,14.66,-23.69,12.95,47400
-0.36,-10.84,3.84,-0.38,-1.32,-0.42,16.52,-23.90,11.06,47434
-0.04,-14.35,4.65,0.32,-2.59,-0.15,18.75,-23.65,10.14,47468
0.22,-12.07,4.48,0.86,-3.35,-0.10,22.64,-22.35,8.29,47502
0.37,-12.11,2.78,1.45,-4.33,-0.21,27.02,-21.27,5.61,47537
2.03,-11.95,-2.12,1.81,-5.03,-1.08,32.62,-19.23,0.94,47571
3.80,-10.24,1.14,2.34,-5.62,-1.93,36.98,-15.23,-5.63,47605
7.63,-3.79,1.04,3.05,-6.52,-2.34,40.34,-10.84,-13.30,47639
5.30,-5.99,-6.55,3.06,-5.20,-1.50,41.51,-8.14,-21.79,47673
5.39,-12.79,-7.86,1.78,-2.96,-0.78,41.73,-6.91,-27.19,47708
1.37,-6.35,-1.39,1.07,-1.63,-0.91,40.89,-5.16,-29.79,47742
2.68,-6.77,0.17,1.28,-1.84,-0.35,40.49,-4.95,-32.49,47776
8.99,-10.54,-2.84,0.95,-1.01,-0.39,39.96,-5.01,-34.05,47810
4.29,-8.08,-1.38,1.00,-0.52,-0.99,39.46,-4.00,-34.36,47844
5.69,-7.25,-1.59,1.07,-0.54,-0.80,39.36,-3.23,-36.07,47878
9.47,-7.25,-3.46,0.84,-0.08,-0.53,38.86,-2.67,-36.55,47913
9.92,-4.78,-5.08,0.68,0.48,-0.75,38.29,-2.56,-36.45,47947
10.18,-6.43,-5.49,0.32,1.34,-0.78,38.73,-1.45,-35.34,47981
9.32,-6.79,-8.23,-0.40,3.16,-0.41,39.05,-1.08,-31.32,48015
4.21,-10.60,-10.18,-0.66,4.34,0.18,39.97,-0.88,-25.64,48049
0.74,-13.08,-12.15,-0.67,4.67,0.54,39.86,-2.00,-18.44,48083
-1.14,-12.05,-12.54,-1.57,5.24,0.26,38.75,-2.94,-10.86,48118
-4.31,-11.59,-10.61,-2.67,5.88,-0.34,35.79,-3.65,-4.02,48152
-1.60,-9.40,-10.76,-3.56,5.50,-1.01,30.50,-5.10,5.35,48186
-4.42,-8.89,-6.59,-4.01,4.39,-1.13,25.40,-7.79,9.73,48220
-2.68,-6.20,-3.24,-3.54,3.62,-0.31,20.75,-12.20,14.02,48254
-4.29,-21.53,10.73,-1.98,-0.12,-0.60,18.28,-14.69,13.91,48289
2.20,-9.89,6.04,-0.46,-2.70,-1.47,20.72,-13.91,12.86,48323
1.72,-9.38,6.81,0.16,-2.58,-1.29,23.87,-13.29,10.48,48357
4.24,-13.90,4.79,0.33,-2.02,-0.82,25.67,-12.16,9.11,48391
2.48,-11.01,2.96,0.47,-1.59,-0.82,27.68,-11.11,7.66,48425
-1.24,-10.18,1.92,0.85,-1.74,-0.19,29.25,-10.00,6.05,48459
2.58,-10.82,-2.26,0.94,-1.81,0.15,30.96,-8.87,3.68,48494
3.46,-9.88,-1.92,0.84,-1.29,-0.07,32.23,-8.33,2.38,48528
3.83,-8.19,-0.90,0.80,-1.01,-0.35,32.93,-6.77,1.02,48562
5.33,-7.96,-3.35,0.67,-0.59,-0.20,33.32,-6.88,-0.04,48596
6.22,-7.86,-2.86,0.40,-0.18,-0.28,33.43,-5.69,-0.38,48630
5.46,-6.73,-5.91,-0.00,0.52,-0.29,32.56,-5.35,0.98,48665
4.75,-7.11,-5.91,-0.36,1.03,-0.13,31.48,-5.93,2.08,48699
4.15,-6.75,-6.81,-0.93,1.80,0.24,30.39,-6.81,4.24,48733
3.98,-7.63,-4.14,-1.51,2.48,0.22,28.11,-8.64,6.09,48767
2.40,-7.90,-3.76,-1.64,2.39,0.21,25.07,-10.57,8.43,48801
3.58,-10.33,-0.58,-1.51,1.93,0.31,22.42,-12.45,10.68,48835
2.23,-10.31,-0.05,-1.24,1.38,0.09,20.71,-14.16,11.30,48870
4.80,-8.65,-0.18,-1.00,0.63,-0.02,19.26,-15.57,11.08,48904
4.07,-9.12,-0.58,-0.63,0.12,0.16,19.25,-16.65,11.31,48938
3.29,-9.02,-1.09,-0.41,-0.62,0.18,19.45,-17.36,11.22,48972
6.69,-8.66,-1.02,-0.30,-0.80,0.02,20.15,-18.14,10.74,49006
4.26,-6.84,-1.31,-0.22,-0.91,-0.20,20.56,-18.01,9.60,49041
5.62,-7.89,-1.42,-0.16,-0.89,-0.23,21.53,-17.67,8.49,49075
5.34,-8.65,-1.27,-0.08,-1.32,-0.39,22.70,-18.17,6.97,49109
6.18,-9.10,-0.19,0.00,-1.46,-0.57,23.46,-17.70,6.18,49143
4.49,-9.67,-0.07,0.12,-1.62,-0.63,24.92,-16.88,4.76,49177
5.69,-8.41,0.36,0.31,-1.92,-0.82,26.34,-16.52,3.39,49211
4.23,-9.58,2.33,0.69,-2.24,-0.73,28.59,-15.23,0.41,49246
3.41,-10.59,1.11,1.05,-2.62,-0.71,29.76,-14.62,-2.75,49280
4.56,-11.05,-3.56,0.90,-2.61,-0.91,31.91,-14.03,-5.23,49314
2.90,-10.74,-2.30,0.66,-2.14,-1.24,32.90,-12.83,-8.07,49348
3.17,-9.39,-1.61,0.73,-2.20,-1.35,30.11,-10.84,-10.57,49382
3.43,-9.49,-1.11,0.93,-2.32,-1.22,34.61,-9.89,-13.24,49416
3.22,-9.62,-1.70,1.08,-2.26,-1.13,34.93,-8.81,-16.52,49451
6.27,-8.57,-2.10,1.22,-2.28,-1.15,35.74,-7.31,-20.84,49485
5.97,-9.12,-2.12,1.43,-2.04,-1.17,36.10,-6.59,-23.37,49519
4.84,-7.99,-1.54,1.71,-2.11,-1.14,35.79,-4.87,-26.97,49553
2.63,-8.29,-0.73,1.98,-2.33,-0.68,35.34,-4.52,-30.30,49587
5.86,-10.68,-2.49,1.73,-2.32,-0.46,35.63,-4.56,-32.96,49622
4.61,-11.49,-1.54,1.15,-1.24,-0.55,34.70,-4.33,-36.17,49656
2.89,-10.27,0.88,1.16,-1.15,-0.82,34.52,-4.38,-37.46,49690
3.73,-11.27,1.09,1.54,-1.73,-1.02,33.85,-3.71,-40.89,49724
4.33,-7.89,1.30,1.97,-2.16,-1.12,31.98,-3.71,-43.77,49758
3.56,-5.69,0.12,2.50,-2.57,-0.72,30.02,-3.81,-46.30,49792
2.62,-6.62,-1.35,2.87,-2.95,-0.39,27.52,-5.77,-50.26,49827
7.91,-11.99,-4.22,1.65,-1.49,-0.33,26.34,-6.55,-51.64,49861
4.07,-6.46,1.14,1.29,-0.71,-0.63,25.67,-7.57,-52.27,49895
4.86,-5.79,1.00,1.32,-0.94,-0.37,23.66,-8.78,-54.97,49929
5.71,-10.87,-3.13,1.07,-0.04,-0.26,23.59,-9.38,-54.88,49963
5.69,-5.22,-4.74,0.81,0.38,-0.63,23.87,-10.35,-55.50,49998
9.10,-6.71,-5.02,0.43,0.60,-0.92,24.38,-10.60,-54.68,50032
7.73,-5.68,-6.90,-0.15,1.37,-1.51,25.04,-9.85,-54.19,50066
8.77,-6.94,-7.76,-0.37,1.65,-1.76,26.67,-8.18,-51.29,50100
7.73,-7.42,-9.18,-1.03,2.51,-1.37,27.80,-6.33,-48.79,50134
3.62,-10.52,-11.38,-1.74,4.21,-0.85,31.64,-4.43,-44.52,50168
4.74,-15.72,-15.02,-2.26,5.30,-0.26,34.11,-2.94,-38.29,50203
-0.79,-12.79,-17.42,-3.12,6.45,0.11,35.88,-3.07,-29.89,50237
-4.87,-14.71,-16.69,-4.61,7.09,0.26,36.51,-3.95,-18.12,50271
-1.77,-12.30,-13.74,-5.20,7.73,-0.11,34.35,-5.35,-8.89,50305
0.84,-12.94,-5.44,-5.01,4.65,-0.32,30.99,-8.21,-1.99,50339
-3.58,-13.43,0.48,-4.10,3.34,-0.60,27.54,-11.71,1.13,50374
-0.64,-12.10,2.84,-2.65,0.64,-0.54,26.22,-13.56,2.09,50408
-1.74,-13.55,6.59,-1.12,-1.10,-0.32,25.83,-14.83,1.72,50442
0.21,-12.96,9.42,-0.03,-2.98,-0.50,28.15,-14.19,-1.52,50476
3.01,-12.21,7.92,0.77,-4.15,-0.90,31.18,-13.52,-5.47,50510
1.45,-13.91,5.69,1.30,-4.39,-0.99,34.01,-12.42,-11.12,50544
1.80,-11.04,2.41,1.58,-4.71,-1.23,35.78,-11.01,-15.83,50579
0.63,-10.57,-0.97,1.88,-4.89,-1.24,37.09,-9.35,-22.86,50613
2.36,-8.55,-1.41,1.94,-4.65,-1.45,37.21,-8.26,-28.90,50647
6.21,-9.37,-3.77,1.64,-4.03,-1.42,36.23,-7.19,-34.35,50681
3.96,-10.01,-0.06,1.25,-3.08,-1.31,34.49,-6.14,-38.56,50715
3.94,-9.19,0.61,1.49,-2.95,-1.10,33.16,-5.58,-42.69,50750
1.30,-8.14,-10.58,1.76,-3.03,-0.90,30.82,-5.51,-47.19,50784
4.41,-14.17,-0.60,0.95,-1.41,-1.53,30.24,-5.47,-49.01,50818
1.12,-11.17,9.62,1.84,-2.57,-1.77,27.16,-5.48,-51.99,50852
10.42,-12.22,-1.39,2.42,-3.58,-1.41,23.78,-6.52,-56.30,50886
2.12,-10.13,-2.65,2.26,-2.22,-1.43,20.93,-7.50,-58.99,50920
6.14,-10.01,-5.97,2.06,-1.82,-1.29,18.77,-9.41,-60.95,50955
4.91,-3.93,-5.97,1.69,-0.78,-1.36,17.54,-10.68,-61.20,50989
7.20,-6.68,-5.49,1.39,0.27,-0.63,17.60,-12.13,-62.09,51023
9.05,-5.15,-4.45,0.84,1.33,-0.94,19.73,-12.80,-61.02,51057
8.71,-4.33,-6.59,0.01,2.50,-0.83,22.42,-13.11,-60.11,51091
12.31,-7.03,-8.83,-0.53,3.64,-0.79,26.32,-12.16,-57.99,51125
8.71,-8.39,-13.13,-1.07,4.99,-0.77,32.37,-9.62,-53.03,51160
1.62,-9.50,-21.18,-1.29,5.42,-0.42,37.15,-7.83,-46.24,51194
3.52,-10.09,-24.93,-2.69,6.49,0.01,41.95,-5.96,-36.52,51228
0.78,-17.91,-19.50,-4.97,8.17,-0.39,43.95,-4.34,-23.75,51262
-6.68,-15.13,-9.41,-5.46,7.78,-1.92,42.05,-2.60,-10.35,51296
5.16,-9.97,-5.39,-4.78,2.72,-1.70,38.82,-2.22,-2.15,51331
4.10,-18.72,0.18,-3.68,2.06,-0.60,35.79,-2.59,2.27,51365
3.25,-9.77,-1.54,-2.75,0.96,-1.59,33.08,-3.10,5.35,51399
1.07,-9.41,-1.87,-2.94,0.81,-0.87,31.45,-4.47,7.60,51433
-0.65,-11.73,-0.87,-2.69,0.54,0.26,29.63,-6.69,8.32,51467
-2.96,-14.64,1.61,-1.90,-0.20,0.55,28.57,-9.51,8.89,51501
-1.77,-13.16,3.43,-0.54,-1.67,0.48,29.38,-10.14,7.31,51536
1.21,-12.29,5.40,0.27,-2.21,0.48,31.41,-10.63,5.23,51570
2.26,-12.13,6.86,0.39,-2.00,0.16,32.43,-10.86,3.27,51604
-0.28,-13.73,4.29,1.02,-3.83,-0.75,34.07,-10.23,-1.15,51638
1.77,-10.67,1.50,1.63,-5.03,-1.47,37.33,-7.41,-7.16,51672
4.22,-10.29,0.88,1.78,-5.12,-1.68,38.32,-5.28,-14.29,51707
2.11,-11.83,-0.56,1.85,-4.85,-1.86,38.53,-2.44,-22.35,51741
2.87,-10.71,-2.93,1.85,-4.63,-2.24,37.61,0.32,-28.57,51775
2.30,-8.54,-1.78,1.94,-4.05,-2.22,35.56,2.81,-33.73,51809
5.79,-9.07,-1.65,2.26,-4.04,-1.90,32.53,3.73,-40.35,51843
3.98,-9.69,-3.00,2.06,-3.21,-1.88,29.25,4.06,-43.61,51877
2.55,-9.96,-3.11,1.63,-1.80,-1.76,26.73,4.33,-48.63,51912
1.14,-10.02,-3.96,1.71,-1.66,-1.21,24.31,3.71,-50.04,51946
5.04,-9.27,-2.63,1.62,-1.06,-0.95,22.96,3.19,-50.77,51980
6.00,-8.69,-3.00,1.44,-0.51,-0.87,21.67,1.53,-52.94,52014
4.70,-6.61,-3.20,1.44,-0.26,-0.90,20.81,1.59,-54.74,52048
7.83,-6.84,-5.55,1.41,-0.23,-0.96,20.10,-0.15,-54.43,52083
7.67,-5.35,-7.12,0.97,0.68,-1.08,20.27,-1.10,-54.49,52117
6.27,-4.31,-6.61,0.68,1.33,-0.80,21.44,-1.90,-54.74,52151
7.48,-8.02,-7.76,0.35,2.46,-0.31,23.71,-2.38,-52.70,52185
4.07,-8.59,-13.22,-0.28,3.71,-0.40,26.59,-2.50,-50.58,52219
3.03,-11.54,-19.79,-1.55,4.95,-0.52,30.62,-1.42,-44.37,52253
-1.53,-8.91,-25.78,-4.27,6.91,-0.56,34.57,0.70,-34.92,52288
-4.61,-2.51,-18.15,-6.16,7.38,0.22,36.39,1.61,-23.60,52322
-1.36,-29.05,-1.90,-6.74,6.64,1.58,35.95,-1.75,-11.33,52356
2.20,-10.98,-3.25,-4.54,5.08,-0.44,33.31,-3.90,-4.06,52390
0.11,-14.82,2.84,-3.49,1.72,-0.16,30.53,-6.91,0.32,52424
7.71,-6.22,-2.63,-2.10,-0.14,-0.11,31.09,-8.62,0.75,52458
4.40,-9.04,-1.82,-1.73,-0.26,-0.20,31.34,-9.91,0.58,52493
2.11,-9.14,-0.01,-1.24,-1.26,-0.54,31.99,-10.95,-0.15,52527
2.38,-14.19,4.87,-0.46,-2.15,-0.57,33.08,-10.98,-2.28,52561
4.62,-16.03,3.55,-0.18,-2.24,-1.31,34.48,-10.41,-4.37,52595
2.50,-14.48,3.51,-0.14,-2.04,-1.98,35.71,-8.40,-6.64,52629
3.41,-7.57,2.89,0.77,-2.54,-1.96,36.36,-6.36,-9.46,52664
1.44,-8.02,1.76,1.60,-3.83,-1.49,38.29,-3.92,-16.06,52698
2.71,-10.15,-0.80,1.95,-4.46,-1.46,39.05,-1.42,-22.98,52732
3.55,-9.13,-1.81,1.77,-3.91,-1.92,39.67,1.34,-28.30,52766
6.36,-6.86,-1.78,1.68,-3.82,-1.70,38.03,3.98,-35.34,52800
8.94,-7.66,-3.22,1.92,-3.25,-1.23,36.00,5.23,-40.37,52834
10.54,-12.51,-6.12,1.37,-2.09,-1.15,34.08,6.80,-44.01,52869
9.05,-10.88,-8.38,0.74,-1.01,-1.65,32.62,8.29,-44.15,52903
6.30,-4.78,-4.93,0.17,0.06,-1.90,30.28,11.02,-44.86,52937
2.97,-3.28,-2.41,0.25,0.11,-1.23,27.57,12.74,-45.44,52971
5.77,-6.15,-2.15,0.44,0.23,-0.94,26.76,13.49,-45.16,53005
-0.22,-10.40,-0.23,0.50,0.32,-0.66,25.91,13.78,-43.17,53040
2.17,-9.44,0.37,0.63,-0.16,-0.75,25.24,13.42,-44.26,53074
1.07,-10.39,-0.72,0.96,-0.96,-0.79,23.59,13.74,-45.15,53108
3.77,-9.23,-1.51,1.39,-1.14,-0.67,22.04,12.45,-47.12,53142
5.76,-9.22,-3.76,1.26,-0.98,-0.55,20.68,11.68,-48.57,53176
8.59,-9.39,-6.73,0.75,-0.28,-0.78,19.99,10.84,-48.95,53210
6.95,-4.07,-5.19,0.33,0.91,-1.17,19.85,10.84,-49.02,53245
7.80,-1.56,-4.85,0.29,0.99,-0.79,20.05,10.38,-48.83,53279
9.00,-4.50,-5.63,0.47,0.50,-0.51,20.62,9.81,-47.90,53313
8.54,-6.03,-6.86,0.17,1.08,-0.81,21.25,10.08,-48.01,53347
8.70,-5.15,-5.42,-0.37,1.69,-0.80,22.79,10.33,-45.35,53381
6.57,-2.88,-5.48,-0.42,1.78,-0.41,23.84,10.60,-44.49,53416
4.91,-4.33,-5.57,-0.24,1.50,-0.15,25.50,10.25,-43.39,53450
6.82,-6.13,-3.53,-0.07,0.94,0.03,26.95,10.65,-41.80,53484
8.08,-6.74,-5.30,-0.36,1.15,-0.06,27.95,10.90,-40.56,53518
8.34,-6.55,-6.31,-0.65,1.58,-0.16,28.94,11.43,-38.37,53552
5.93,-5.95,-4.97,-0.87,1.90,-0.07,30.66,12.00,-35.21,53586
6.54,-7.18,-6.40,-0.82,1.93,-0.14,31.53,12.42,-32.83,53621
4.88,-6.18,-5.35,-0.91,1.62,-0.14,32.05,13.20,-30.56,53655
4.21,-4.28,-7.99,-1.21,1.26,-0.11,32.55,13.83,-27.42,53689
3.16,-6.22,-7.49,-1.45,2.06,0.04,32.67,14.32,-23.78,53723
2.63,-5.32,-2.40,-1.68,3.65,1.02,32.89,13.49,-18.66,53757
-3.71,-6.82,4.52,-1.15,3.94,1.76,33.35,11.60,-13.15,53791
