ax,ay,az,gx,gy,gz,mx,my,mz,timestamp
-3.18,-7.35,5.93,0.12,-0.02,-0.00,-40.50,15.61,46.71,98130
-2.88,-7.13,5.81,0.25,0.07,-0.08,-40.57,16.25,46.49,98165
-3.18,-7.40,6.13,0.13,0.04,-0.08,-40.95,17.20,46.62,98199
-3.05,-7.60,6.45,0.11,-0.01,-0.10,-40.85,16.71,46.64,98233
-3.44,-7.16,6.31,-0.18,-0.38,-0.13,-39.92,15.58,46.24,98267
-2.40,-8.15,6.15,-0.36,-0.56,-0.07,-39.16,15.04,46.90,98301
-2.30,-7.54,6.26,0.08,-0.22,-0.10,-39.26,14.98,46.70,98335
-2.87,-7.29,6.03,0.05,-0.04,0.01,-38.75,15.16,45.53,98370
-3.04,-7.01,6.08,0.06,0.06,-0.01,-39.36,14.94,43.93,98404
-3.26,-7.17,5.99,0.12,0.00,0.09,-39.96,14.64,42.47,98438
-3.41,-7.31,5.97,0.08,-0.04,0.08,-40.81,15.14,41.39,98472
-3.25,-7.72,6.06,0.15,-0.03,0.01,-40.49,14.86,40.19,98506
-3.37,-7.61,6.05,0.20,-0.15,-0.06,-41.04,15.13,40.08,98541
-3.71,-7.03,5.92,0.44,-0.32,-0.11,-40.53,15.67,39.93,98575
-3.16,-6.67,5.74,0.38,-0.38,-0.09,-39.64,15.90,39.16,98609
-2.69,-7.31,6.33,0.27,-0.28,-0.13,-39.08,15.74,39.93,98643
-3.08,-6.54,6.20,0.33,-0.23,-0.13,-38.57,14.89,39.33,98677
-2.34,-7.42,6.64,0.17,-0.45,-0.08,-37.85,14.92,39.33,98711
-2.09,-7.33,6.61,0.31,-0.39,-0.06,-37.66,14.44,38.98,98746
-2.43,-7.58,6.95,0.15,-0.20,-0.09,-37.36,14.44,39.51,98780
-2.46,-7.14,7.31,0.39,-0.26,-0.10,-36.64,14.79,39.37,98814
-2.86,-6.52,7.02,0.09,-0.34,0.03,-35.55,14.76,40.02,98848
-1.81,-8.22,7.37,0.18,-0.59,-0.13,-35.38,14.85,40.12,98882
-1.77,-6.53,7.04,0.57,-0.58,-0.15,-34.81,15.80,39.97,98916
-1.49,-7.01,7.13,0.37,-0.35,-0.07,-34.23,16.12,40.46,98951
-1.63,-6.57,7.25,0.61,-0.11,-0.17,-34.08,18.08,39.77,98985
-1.89,-6.28,7.11,0.36,0.07,-0.11,-34.42,18.65,40.05,99019
-1.85,-7.55,7.74,0.52,0.12,-0.12,-34.79,19.00,39.46,99053
-1.83,-5.48,7.07,0.98,0.11,-0.27,-35.47,20.94,38.37,99087
-1.98,-6.78,7.84,0.17,0.03,-0.13,-35.41,21.02,37.97,99122
-2.22,-5.84,8.06,0.54,-0.00,-0.18,-36.23,21.75,37.56,99156
-2.31,-5.75,7.90,0.16,-0.10,-0.10,-36.19,22.57,36.77,99190
-2.05,-5.79,7.89,-0.03,-0.09,-0.09,-35.55,22.29,38.26,99224
-2.04,-6.00,8.00,-0.00,-0.08,-0.07,-36.00,22.22,37.39,99258
-2.07,-5.89,7.85,0.08,0.02,-0.01,-35.79,22.29,38.34,99292
-2.16,-6.14,7.71,-0.03,-0.01,-0.07,-35.75,21.81,37.78,99327
-2.37,-5.98,7.66,0.07,0.01,-0.07,-36.28,21.78,38.04,99361
-2.26,-5.81,7.60,-0.11,-0.05,-0.09,-36.26,21.82,36.99,99395
-2.17,-6.09,7.69,-0.27,-0.11,-0.07,-35.81,21.02,37.88,99429
-2.12,-6.02,7.57,-0.25,-0.09,-0.05,-35.68,20.68,38.32,99463
-2.10,-5.52,7.51,-1.05,-0.12,-0.11,-35.78,18.47,38.97,99498
-2.04,-6.47,7.45,-1.49,-0.15,0.05,-35.47,16.22,40.78,99532
-1.44,-7.53,6.59,-1.14,0.07,0.14,-35.08,13.77,40.84,99566
-2.55,-7.51,6.73,-0.07,0.10,-0.08,-35.25,12.91,40.92,99600
-2.22,-7.25,6.58,-0.09,-0.04,-0.10,-36.33,12.55,41.26,99634
-2.35,-7.30,6.39,-0.03,-0.11,-0.07,-37.42,12.63,42.05,99668
-2.92,-6.71,6.05,0.07,-0.01,-0.08,-37.42,12.98,42.17,99703
-2.94,-7.14,6.41,0.08,-0.01,-0.07,-37.45,13.02,40.94,99737
-1.98,-7.45,6.89,0.05,-0.22,-0.09,-38.04,12.72,41.63,99771
-1.57,-7.27,6.89,0.05,-0.16,-0.06,-38.48,12.76,41.98,99805
-1.54,-7.63,7.25,0.00,0.10,-0.10,-38.79,12.38,40.56,99839
-2.13,-8.15,7.39,-0.11,0.18,-0.12,-39.21,12.10,40.87,99874
-0.89,-8.18,7.72,-0.16,0.43,-0.21,-40.35,11.56,40.05,99908
-1.47,-8.33,7.73,-0.38,0.74,-0.26,-41.55,11.17,38.34,99942
-2.41,-8.69,7.06,-0.53,0.78,-0.35,-43.10,9.79,38.13,99976
-1.86,-8.70,6.22,-0.70,0.86,-0.48,-45.12,8.48,36.10,100010
-2.61,-8.50,5.41,-0.87,0.90,-0.67,-46.58,7.10,35.46,100044
-2.57,-8.52,4.90,-0.94,0.92,-0.77,-48.28,4.43,33.34,100079
-1.57,-8.60,4.66,-1.07,0.89,-0.90,-49.84,2.00,31.80,100113
-2.50,-9.35,4.38,-1.22,0.88,-1.17,-51.72,-1.83,29.54,100147
-0.69,-8.39,2.83,-1.41,0.63,-1.33,-52.86,-5.32,28.44,100181
0.05,-7.68,2.50,-1.49,0.81,-1.56,-53.77,-9.49,26.47,100215
0.46,-6.15,1.30,-1.67,0.56,-1.84,-54.08,-14.89,23.72,100250
-0.20,-8.39,1.47,-1.73,0.53,-1.90,-54.62,-20.81,23.14,100284
2.06,-5.50,0.50,-2.03,-0.03,-2.41,-53.26,-27.80,21.54,100318
2.76,-20.68,-7.41,-2.40,-0.62,-2.79,-49.87,-35.00,19.85,100352
-5.17,-9.90,5.96,-1.87,0.53,-2.72,-46.64,-42.36,18.23,100386
4.86,-5.81,-5.12,-2.60,-0.89,-2.25,-43.12,-49.50,14.60,100420
-2.75,-9.55,-0.11,-1.39,1.03,-1.80,-40.87,-53.42,11.94,100455
2.94,-12.35,-0.73,-1.22,-0.16,-1.14,-38.41,-57.21,10.67,100489
0.48,-10.36,-0.70,-0.83,-0.30,-0.82,-36.45,-59.25,8.74,100523
2.96,-12.31,-2.48,-0.54,-0.51,-0.43,-35.09,-60.32,8.35,100557
-0.00,-8.54,-1.99,-0.28,-0.05,0.08,-35.33,-60.84,6.93,100591
2.58,-8.74,-3.02,-0.24,-0.42,0.04,-35.34,-61.17,8.10,100625
1.54,-7.98,-2.74,-0.13,-0.24,-0.16,-34.77,-60.55,6.81,100660
1.47,-9.23,-2.77,-0.06,-0.04,-0.26,-34.16,-61.46,7.21,100694
2.85,-9.55,-2.38,-0.22,0.17,-0.20,-34.17,-62.26,7.75,100728
5.66,-7.39,-3.81,-0.05,0.18,-0.48,-33.53,-62.63,6.94,100762
6.02,-7.54,-2.22,-0.09,0.13,-0.59,-32.81,-63.59,6.17,100796
5.63,-7.67,-2.07,-0.27,-0.06,-0.55,-31.88,-63.26,6.18,100831
4.93,-7.66,-3.57,-0.27,-0.22,-0.41,-30.94,-64.34,5.64,100865
5.39,-7.46,-4.81,-0.12,-0.34,-0.25,-30.62,-65.01,6.07,100899
5.38,-7.66,-3.94,0.03,-0.23,-0.10,-29.95,-64.62,6.24,100933
5.34,-8.89,-2.84,0.22,-0.10,0.12,-30.06,-64.45,6.05,100967
4.23,-9.29,-2.32,0.29,-0.21,0.32,-31.04,-64.25,6.62,101001
4.01,-9.37,-2.09,0.34,-0.33,0.58,-32.17,-63.07,7.34,101036
3.49,-8.72,-2.70,0.46,-0.57,0.62,-32.91,-61.69,8.51,101070
2.84,-8.57,-3.49,0.51,-0.62,0.61,-33.56,-60.13,10.87,101104
2.34,-8.73,-3.83,0.65,-0.53,0.56,-34.23,-58.73,12.63,101138
1.35,-9.13,-3.53,0.79,-0.55,0.43,-35.03,-57.09,13.26,101172
-0.29,-9.66,-3.93,1.01,-1.22,0.13,-35.37,-55.66,17.20,101207
0.58,-8.36,-4.25,1.10,-1.86,-0.10,-32.21,-54.41,20.48,101241
0.67,-9.46,-3.52,1.01,-1.47,-0.07,-30.18,-53.77,23.17,101275
1.73,-9.75,-2.61,1.03,-1.02,0.02,-28.81,-52.51,25.42,101309
0.63,-8.94,-1.09,1.05,-0.80,0.03,-28.60,-50.76,27.39,101343
2.01,-9.29,-0.20,0.95,-0.97,-0.00,-27.46,-50.25,28.97,101377
2.86,-9.02,-1.44,0.90,-1.18,0.01,-25.30,-48.83,30.80,101412
3.77,-8.48,-1.54,0.80,-0.73,-0.12,-24.17,-47.53,32.89,101446
2.10,-9.54,0.76,0.77,-0.20,0.10,-24.12,-46.58,33.73,101480
3.89,-10.17,-0.84,0.71,-0.81,0.13,-23.79,-46.24,35.06,101514
3.80,-8.87,-1.23,0.71,-0.52,0.42,-23.17,-44.49,35.75,101548
2.91,-10.03,0.23,0.60,0.11,0.49,-24.09,-42.65,36.03,101583
2.24,-9.27,-0.38,0.52,0.18,0.25,-25.26,-41.49,37.27,101617
2.02,-9.05,-1.32,0.43,0.06,0.11,-26.29,-40.41,41.11,101651
3.51,-9.38,-0.42,0.26,0.25,0.11,-26.91,-39.90,37.46,101685
1.43,-9.26,-0.45,0.41,0.16,-0.07,-27.78,-39.42,37.30,101719
1.67,-9.37,-0.49,0.31,0.17,-0.01,-28.30,-38.73,37.49,101753
2.43,-10.44,-0.03,0.24,0.17,-0.18,-28.72,-38.72,36.89,101788
1.86,-9.81,-0.91,0.28,0.26,-0.17,-29.25,-38.09,36.74,101822
1.79,-9.53,-0.50,0.29,0.25,-0.16,-30.15,-38.31,37.05,101856
1.41,-10.25,0.59,0.24,0.38,-0.22,-30.59,-38.18,36.58,101890
1.70,-10.91,-1.41,0.12,0.51,-0.41,-31.31,-37.96,35.72,101924
0.36,-10.04,0.09,0.09,1.81,-0.47,-33.76,-38.56,33.59,101958
4.36,-9.52,-3.22,-0.49,1.24,-0.71,-35.41,-40.05,31.45,101993
1.22,-9.39,-5.66,-1.80,6.62,0.61,-45.22,-41.29,19.53,102027
-1.40,-9.36,-1.81,-1.96,7.61,0.42,-53.77,-41.73,2.63,102061
-10.67,-4.47,-0.92,-1.88,3.93,-0.35,-57.06,-43.35,-11.12,102095
6.72,-8.93,-0.73,-1.90,3.56,0.47,-57.92,-42.93,-21.85,102129
-7.04,-9.53,-1.15,-1.44,5.41,1.39,-58.01,-40.16,-35.55,102164
9.09,-9.69,-1.53,-0.29,3.35,1.58,-56.21,-36.76,-44.61,102198
-5.03,-20.50,11.37,-0.08,6.07,3.02,-53.05,-31.88,-55.58,102232
1.97,-5.63,-1.09,1.31,-2.89,0.72,-54.27,-30.84,-50.98,102266
-0.20,-7.29,0.01,0.79,0.71,1.35,-56.24,-29.54,-50.18,102300
-4.19,-8.64,-6.57,0.83,1.18,-0.02,-55.60,-29.39,-52.70,102334
-3.29,-7.47,-3.99,-0.24,1.62,-0.59,-52.92,-30.18,-56.47,102369
6.61,-12.14,3.16,-0.88,3.34,-0.91,-48.35,-29.77,-62.73,102403
-7.72,-9.18,0.45,-0.77,6.03,-0.92,-38.34,-30.11,-71.97,102437
-6.35,-7.83,0.24,-0.62,-1.51,-1.11,-33.94,-29.60,-74.28,102471
11.34,-12.20,1.22,0.04,-1.94,-0.84,-36.77,-30.52,-71.59,102505
-7.18,-11.25,-1.94,0.39,0.14,0.16,-35.95,-31.15,-72.38,102540
3.08,-10.54,2.70,0.58,0.51,0.50,-35.94,-31.48,-72.01,102574
-6.22,-8.93,-1.84,0.44,-0.64,0.01,-35.82,-31.58,-72.14,102608
5.32,-10.43,-0.39,0.31,-0.21,-0.11,-37.61,-32.02,-70.29,102642
-4.21,-9.08,-3.00,0.29,0.87,-0.16,-36.20,-32.64,-71.24,102676
2.03,-10.06,-1.16,0.18,0.10,-0.28,-34.83,-33.62,-71.12,102710
0.80,-10.31,0.14,0.14,0.87,-0.38,-33.28,-33.57,-72.42,102745
-1.23,-9.30,-1.90,0.06,1.01,-0.49,-31.00,-34.32,-73.50,102779
-4.86,-9.50,-0.10,0.11,1.43,-0.66,-27.77,-34.89,-75.59,102813
4.60,-10.79,0.88,0.04,0.31,-0.73,-26.66,-35.50,-75.75,102847
-3.02,-9.48,-0.17,0.27,0.80,-0.48,-24.55,-36.63,-75.45,102881
2.52,-9.29,-0.03,0.44,-0.42,-0.41,-24.00,-36.96,-75.67,102916
1.63,-8.68,-0.06,0.39,-0.06,-0.38,-24.38,-38.16,-75.31,102950
1.48,-9.23,-0.24,0.39,-0.17,-0.45,-24.33,-39.81,-73.75,102984
1.41,-9.38,-0.75,0.33,0.05,-0.58,-24.10,-40.70,-73.84,103018
-0.33,-10.68,-0.72,0.26,0.42,-0.77,-22.73,-41.52,-74.50,103052
0.10,-11.25,-0.11,0.27,0.47,-1.05,-20.29,-42.78,-74.25,103086
3.03,-12.39,-4.30,-0.05,1.48,-0.90,-17.42,-43.93,-75.08,103121
-6.08,-11.03,1.23,0.17,1.99,-1.13,-11.97,-44.80,-76.34,103155
3.06,-14.32,0.86,-0.05,1.47,-1.13,-9.76,-45.38,-76.72,103189
-2.74,-12.37,-0.49,0.19,1.10,-1.74,-5.23,-45.05,-76.79,103223
8.41,-8.55,-2.46,0.51,-0.92,-2.19,-4.79,-45.48,-77.42,103257
-5.07,-7.87,-3.46,-0.05,-4.43,-3.33,-7.82,-45.64,-76.35,103291
0.95,-3.30,-3.71,0.16,-8.38,-3.44,-20.62,-47.28,-71.44,103326
3.04,-4.10,-5.30,0.17,-7.61,-2.32,-31.95,-49.40,-64.54,103360
4.11,-3.51,-7.74,0.71,-5.61,-0.99,-39.62,-51.51,-55.57,103394
5.54,-3.66,-4.08,1.20,-3.09,-0.19,-45.26,-52.66,-48.26,103428
17.26,-17.01,13.10,-0.10,1.05,0.02,-47.33,-52.81,-47.59,103462
-2.87,-7.74,2.55,0.87,1.81,1.47,-45.92,-52.63,-49.78,103497
2.13,-4.42,-1.31,0.79,-1.77,1.47,-50.01,-49.91,-45.79,103531
14.55,-9.68,1.16,0.59,-1.46,1.94,-54.91,-46.89,-41.41,103565
4.03,-8.90,-2.30,0.66,2.15,2.25,-57.95,-40.84,-43.47,103599
-3.48,-6.33,-5.14,0.31,1.58,2.74,-59.40,-35.30,-46.05,103633
11.62,-9.10,-5.47,0.03,0.44,2.03,-61.33,-27.61,-46.27,103667
3.89,-5.78,0.32,0.33,3.00,1.36,-60.38,-23.31,-52.51,103702
0.64,-7.18,0.07,0.25,0.76,1.14,-59.27,-20.07,-54.27,103736
9.54,-9.70,-1.91,0.35,0.31,0.49,-59.24,-18.33,-54.24,103770
3.30,-8.09,-4.09,0.35,1.69,0.37,-57.31,-17.22,-56.83,103804
5.42,-8.60,-3.10,0.20,1.41,0.23,-55.32,-16.30,-59.72,103838
0.72,-9.06,-1.46,0.17,1.98,-0.02,-52.62,-15.11,-63.02,103873
1.50,-9.66,-1.00,0.16,0.57,-0.34,-50.63,-15.84,-63.86,103907
3.05,-9.61,-1.56,0.21,0.48,-0.56,-49.99,-16.62,-65.20,103941
-0.11,-9.11,-2.32,0.24,0.75,-0.64,-47.57,-17.82,-67.39,103975
1.17,-8.90,-2.22,0.35,0.43,-0.60,-46.64,-18.21,-67.23,104009
1.90,-9.04,-0.87,0.58,0.35,-0.45,-45.59,-19.64,-67.14,104043
1.09,-10.30,-0.70,0.67,0.37,-0.57,-44.37,-21.53,-67.71,104078
0.90,-10.86,-1.16,0.81,-0.05,-0.69,-44.23,-23.33,-67.45,104112
2.44,-11.97,-1.09,0.85,0.24,-0.78,-43.38,-24.52,-67.22,104146
-2.57,-12.18,-0.29,1.06,0.51,-0.95,-41.83,-27.05,-68.24,104180
-0.84,-14.75,1.46,1.20,1.25,-0.77,-39.81,-29.45,-68.72,104214
-2.40,-15.85,-2.47,1.63,-0.38,-1.45,-38.60,-32.11,-67.82,104249
2.10,-7.82,-1.23,1.73,-1.44,-2.03,-38.54,-35.66,-65.01,104283
-14.56,-4.83,-8.50,0.44,-5.67,-2.90,-42.97,-39.13,-57.22,104317
14.76,-0.88,-4.37,0.22,-8.54,-1.81,-50.51,-41.99,-44.10,104351
6.82,-2.92,-3.47,0.56,0.40,0.63,-54.36,-41.70,-40.46,104385
3.60,-7.25,-2.30,0.65,2.01,1.57,-54.43,-38.83,-44.27,104419
-3.56,-7.89,1.79,0.51,1.59,1.98,-55.63,-34.49,-47.98,104454
7.19,-10.97,2.25,-0.88,-0.99,2.00,-58.73,-29.51,-49.24,104488
7.34,-9.15,1.71,-0.27,1.95,1.75,-58.71,-24.70,-53.30,104522
-0.21,-7.92,1.19,-0.55,1.57,1.94,-56.49,-18.15,-59.30,104556
16.24,-10.08,2.23,-0.48,2.52,2.28,-54.37,-12.20,-63.67,104590
0.13,-16.66,11.90,0.01,2.42,1.35,-48.47,-8.02,-70.30,104625
0.07,-6.03,5.71,0.94,-5.43,-0.56,-53.70,-8.35,-61.96,104659
7.25,-9.90,0.21,1.62,-6.21,-0.92,-62.48,-10.51,-50.39,104693
0.43,-8.72,-1.05,1.88,-1.80,0.11,-65.35,-11.12,-44.52,104727
-2.59,-9.51,0.99,1.29,-2.25,0.57,-65.90,-9.69,-40.50,104761
1.97,-14.26,4.73,0.62,-1.98,0.78,-67.42,-8.29,-35.60,104795
-5.74,-12.84,0.11,0.76,-2.11,-0.02,-68.20,-6.01,-30.69,104830
5.03,-11.16,3.07,0.77,-4.25,-0.70,-69.04,-6.50,-22.70,104864
-6.18,-8.06,-4.21,1.57,-5.71,-1.25,-69.34,-7.45,-12.64,104898
7.58,-7.04,-1.51,1.50,-4.90,-0.83,-67.45,-8.81,-0.41,104932
-9.49,-7.82,-4.63,2.13,-5.28,-0.28,-64.98,-7.29,8.71,104966
9.76,-8.73,-9.77,1.42,-5.67,-0.36,-58.96,-5.58,24.12,105000
2.71,-9.79,-10.12,0.05,-1.61,0.29,-57.51,-5.00,27.10,105035
3.82,-7.73,-7.22,-0.10,-1.53,0.24,-56.61,-4.49,29.39,105069
6.76,-9.39,-4.46,-0.50,-0.83,0.45,-56.72,-3.70,31.25,105103
4.81,-9.26,-1.31,-0.45,-0.01,0.44,-57.48,-3.39,31.16,105137
4.78,-9.52,-1.56,-0.28,-0.34,0.25,-57.83,-3.14,31.28,105171
4.69,-8.73,-2.88,-0.19,-0.02,0.36,-58.33,-2.18,31.09,105206
3.34,-9.34,-2.22,-0.15,0.31,0.48,-59.34,-0.91,30.44,105240
2.41,-8.62,-1.52,-0.28,0.33,0.18,-59.98,-1.23,29.01,105274
1.74,-9.27,-1.14,-0.38,0.21,-0.01,-60.84,-1.48,28.85,105308
0.95,-9.82,-1.21,-0.18,-0.22,-0.04,-60.93,-1.49,28.62,105342
2.86,-9.13,-1.33,-0.06,-0.21,0.03,-61.18,-1.27,28.90,105376
1.95,-9.36,-1.43,-0.08,0.12,0.14,-61.59,-1.72,29.26,105411
2.21,-9.29,-1.07,-0.11,0.19,0.13,-62.01,-1.17,29.45,105445
1.94,-9.46,-1.20,-0.11,0.13,0.11,-62.17,-0.95,28.62,105479
2.35,-9.61,-1.27,-0.11,0.09,0.04,-62.07,-0.95,28.28,105513
1.58,-9.50,-1.24,-0.10,0.12,-0.04,-62.77,-1.34,27.71,105547
1.59,-9.42,-1.49,-0.08,-0.12,-0.09,-63.02,-1.74,28.47,105582
1.64,-9.41,-1.31,-0.09,-0.06,-0.08,-63.20,-1.56,27.83,105616
1.79,-9.63,-1.28,-0.08,-0.06,-0.07,-62.85,-1.77,27.42,105650
2.14,-9.41,-1.43,-0.05,-0.05,-0.05,-62.79,-1.59,27.99,105684
1.51,-9.87,-1.45,-0.04,-0.03,0.00,-62.58,-1.80,27.70,105718
2.22,-9.41,-1.52,-0.00,-0.09,0.00,-63.07,-1.75,27.43,105752
1.71,-9.22,-1.67,0.02,-0.07,0.02,-62.44,-1.97,27.90,105787
1.89,-9.79,-1.93,0.03,-0.09,0.03,-62.44,-1.23,27.96,105821
1.77,-9.57,-1.76,0.07,-0.04,0.05,-63.02,-0.94,26.83,105855
1.75,-9.55,-1.54,0.09,-0.03,0.09,-62.70,-0.10,28.37,105889
1.48,-9.31,-1.72,0.09,-0.06,0.07,-62.23,-0.13,27.78,105923
1.50,-9.35,-1.52,0.05,-0.05,0.04,-61.75,0.22,27.62,105958
1.06,-9.82,-1.51,0.05,-0.01,0.02,-61.72,0.32,28.16,105992
0.84,-9.66,-1.43,0.06,0.04,0.03,-62.22,0.70,28.00,106026
0.68,-9.45,-1.24,0.10,0.01,0.03,-61.81,1.07,27.73,106060
1.23,-9.48,-1.32,0.08,-0.07,0.01,-61.62,0.91,27.40,106094
0.52,-8.93,-1.53,0.04,-0.07,-0.02,-61.94,0.92,27.46,106128
1.59,-9.56,-1.38,0.04,-0.10,-0.05,-61.90,1.07,27.40,106163
1.17,-9.40,-1.69,0.08,0.01,-0.03,-61.96,1.02,27.23,106197
1.66,-9.01,-1.87,0.08,0.09,-0.04,-62.36,0.89,26.54,106231
1.75,-8.66,-2.47,0.01,0.19,-0.12,-62.79,1.30,26.22,106265
1.85,-9.67,-2.69,-0.06,0.05,-0.19,-62.98,0.34,26.60,106299
4.39,-9.41,-1.90,-0.15,0.50,-0.10,-63.56,0.18,25.24,106333
2.73,-9.61,-1.53,-0.29,2.18,0.24,-65.64,-0.13,20.93,106368
0.50,-9.49,-1.86,-0.40,2.58,0.29,-67.98,-0.48,15.02,106402
-0.33,-10.29,-0.58,-0.22,1.77,0.21,-69.96,0.13,10.33,106436
1.15,-10.33,-0.84,0.02,0.19,0.08,-70.40,0.83,9.27,106470
2.32,-9.56,-1.43,0.02,0.33,0.19,-70.01,0.83,7.97,106504
1.40,-9.34,-1.91,-0.07,1.33,0.36,-71.06,1.64,4.00,106539
0.40,-9.55,-1.05,-0.15,1.19,0.28,-71.56,2.53,1.72,106573
0.81,-9.49,-1.10,-0.11,0.47,0.08,-71.63,2.84,0.39,106607
0.76,-9.05,-2.70,-0.19,0.03,-0.08,-71.54,2.13,0.56,106641
1.87,-9.28,-2.78,-0.28,0.11,-0.09,-71.54,1.99,0.37,106675
1.27,-9.15,-2.62,-0.17,0.32,-0.14,-71.48,1.61,-0.92,106709
1.52,-9.37,-1.56,-0.21,-0.15,-0.28,-71.28,1.05,-0.54,106744
1.63,-9.76,-1.58,-0.20,-0.08,-0.30,-71.02,-0.25,-0.80,106778
1.93,-9.58,-2.01,-0.14,0.16,-0.22,-70.77,-0.86,-1.14,106812
2.51,-9.89,-1.30,-0.13,0.20,-0.12,-71.13,-1.80,-0.45,106846
2.22,-9.94,-1.08,-0.05,0.25,-0.04,-70.99,-1.89,-1.71,106880
0.84,-9.66,-1.93,0.05,0.32,0.05,-70.94,-1.97,-2.95,106915
0.70,-9.61,-1.79,0.07,0.01,0.06,-70.80,-1.61,-1.97,106949
0.96,-9.48,-1.70,0.07,0.08,0.06,-70.42,-1.26,-2.67,106983
0.15,-9.41,-2.41,0.02,-0.03,0.01,-70.33,-0.70,-3.10,107017
0.87,-9.44,-2.31,0.02,-0.20,-0.03,-70.01,-0.51,-2.24,107051
1.08,-9.57,-1.95,0.00,-0.16,-0.03,-70.17,-1.01,-2.27,107085
1.24,-9.71,-1.65,-0.01,-0.25,-0.04,-70.11,-1.07,-1.90,107120
1.03,-9.41,-1.93,-0.01,-0.22,-0.07,-70.24,-0.91,-1.27,107154
1.19,-9.71,-1.98,-0.01,-0.15,-0.03,-69.83,-0.41,-1.26,107188
1.24,-9.53,-1.99,0.04,-0.11,0.00,-69.80,-0.83,-0.48,107222
1.37,-9.46,-1.95,0.03,-0.09,-0.01,-69.76,-0.66,-0.54,107256
1.30,-9.44,-2.21,0.03,-0.07,-0.01,-69.63,-0.67,-0.69,107291
1.43,-9.50,-2.08,0.05,-0.05,0.02,-69.82,0.18,0.09,107325
1.23,-9.38,-2.06,0.04,-0.04,0.01,-69.75,0.16,-0.29,107359
1.21,-9.48,-2.24,0.04,-0.07,0.01,-69.75,0.25,-0.56,107393
1.31,-9.56,-2.23,0.06,-0.11,0.03,-69.45,0.83,-0.01,107427
1.16,-9.37,-2.31,0.09,-0.11,0.01,-69.25,0.99,0.26,107461
1.02,-9.40,-2.27,0.08,-0.16,-0.01,-69.80,0.91,-0.37,107496
1.01,-9.47,-2.31,0.08,-0.17,-0.02,-69.09,0.76,-0.31,107530
0.90,-9.52,-2.04,0.09,-0.17,-0.03,-69.25,1.65,0.53,107564
1.24,-9.43,-1.93,0.08,-0.16,-0.05,-68.97,1.08,1.67,107598
1.40,-9.63,-1.83,0.08,-0.11,-0.03,-68.85,1.08,0.73,107632
1.02,-9.43,-2.20,0.09,-0.08,-0.05,-68.59,1.51,1.45,107666
1.07,-9.39,-2.36,0.06,-0.07,-0.08,-68.85,1.61,1.61,107701
0.79,-9.55,-2.24,0.08,-0.07,-0.07,-68.74,1.43,2.02,107735
0.67,-9.34,-2.28,0.07,-0.11,-0.11,-68.65,1.14,1.64,107769
0.41,-9.51,-2.15,0.07,-0.11,-0.13,-68.69,1.58,1.39,107803
0.91,-9.65,-2.14,0.07,-0.13,-0.14,-69.26,1.40,1.51,107837
1.01,-9.56,-1.78,0.09,-0.09,-0.13,-68.81,0.67,1.99,107872
1.01,-9.39,-2.03,0.08,-0.09,-0.17,-68.71,0.60,1.08,107906
0.84,-9.62,-2.26,0.09,-0.09,-0.18,-69.09,0.48,0.85,107940
1.18,-9.74,-2.07,0.14,-0.02,-0.08,-69.42,-0.03,1.32,107974
1.42,-9.65,-1.80,0.15,0.03,-0.07,-70.04,0.16,0.73,108008
1.60,-9.36,-1.87,0.16,-0.13,-0.12,-69.64,0.54,1.20,108042
1.30,-9.45,-2.14,0.15,-0.05,-0.10,-70.04,0.42,0.80,108077
1.57,-9.39,-2.04,0.14,-0.02,-0.08,-70.04,0.09,0.50,108111
1.34,-9.32,-1.94,0.13,-0.01,-0.09,-70.33,0.34,0.57,108145
1.08,-9.49,-2.13,0.10,-0.03,-0.15,-70.39,0.18,0.48,108179
1.25,-9.52,-2.00,0.10,0.01,-0.16,-70.75,-0.37,0.61,108213
1.09,-9.62,-1.68,0.14,0.02,-0.13,-70.51,-0.56,0.39,108248
1.09,-9.51,-1.61,0.13,0.00,-0.16,-70.72,-0.03,0.76,108282
0.96,-9.57,-1.76,0.11,0.00,-0.22,-71.02,-1.05,0.12,108316
1.19,-9.62,-1.70,0.14,0.01,-0.19,-70.83,-1.48,0.31,108350
0.94,-9.74,-1.63,0.16,0.02,-0.17,-71.32,-1.55,-0.47,108384
1.72,-9.45,-1.62,0.19,-0.07,-0.17,-71.41,-1.53,-1.10,108418
1.45,-9.57,-1.62,0.20,-0.03,-0.15,-71.72,-1.99,-0.32,108453
1.81,-9.56,-1.55,0.18,-0.03,-0.17,-71.51,-1.78,-1.32,108487
2.06,-9.52,-1.42,0.19,-0.02,-0.15,-72.10,-2.08,-1.27,108521
1.70,-9.51,-1.50,0.20,-0.00,-0.14,-72.03,-1.81,-0.66,108555
1.66,-9.43,-1.75,0.19,0.02,-0.19,-72.32,-2.06,-1.33,108589
1.71,-9.32,-1.69,0.14,0.02,-0.25,-72.43,-2.35,-2.53,108624
1.74,-9.71,-1.44,0.16,0.11,-0.23,-72.60,-2.16,-2.89,108658
1.86,-9.59,-1.29,0.19,0.02,-0.23,-72.41,-2.76,-2.84,108692
1.60,-9.39,-1.20,0.22,-0.00,-0.20,-73.08,-3.33,-3.38,108726
1.91,-9.57,-1.07,0.23,0.01,-0.17,-73.57,-3.57,-3.96,108760
2.19,-9.69,-0.84,0.25,0.03,-0.14,-73.85,-3.54,-3.70,108794
1.88,-9.56,-1.00,0.26,0.01,-0.13,-74.10,-4.08,-4.11,108829
1.97,-9.53,-1.16,0.29,-0.02,-0.15,-74.76,-3.96,-4.36,108863
2.08,-9.56,-1.06,0.27,0.04,-0.15,-75.01,-3.93,-4.75,108897
2.14,-9.51,-0.80,0.31,0.12,-0.12,-75.18,-4.02,-5.38,108931
1.69,-9.74,-0.53,0.30,0.07,-0.14,-74.96,-3.79,-5.73,108965
1.66,-10.12,-0.57,0.22,0.19,-0.25,-75.08,-3.46,-6.14,109000
0.60,-10.49,-0.88,0.22,0.42,-0.38,-75.72,-4.72,-7.37,109034
-0.15,-10.84,-1.95,-0.00,0.63,-0.51,-76.22,-4.85,-9.73,109068
0.54,-10.46,-2.87,-0.19,1.70,-0.62,-77.73,-5.99,-13.26,109102
-1.54,-8.30,-5.26,-0.20,1.06,-0.72,-78.38,-7.86,-18.28,109136
4.83,-7.84,-1.94,-0.84,2.20,0.10,-78.63,-7.10,-23.93,109170
4.99,-6.56,-5.42,-1.26,2.95,0.29,-79.03,-5.80,-33.10,109205
-1.52,-8.55,-2.16,-1.57,1.19,-0.09,-79.01,-3.81,-37.49,109239
4.38,-7.80,-1.82,-1.32,-0.75,0.03,-80.49,-2.98,-37.30,109273
10.41,-10.01,4.74,-1.31,0.03,0.47,-82.21,-1.01,-37.21,109307
11.83,-12.59,3.68,-0.55,2.99,0.86,-81.37,2.31,-45.78,109341
-11.54,-7.98,2.53,0.03,2.89,0.68,-77.54,4.71,-56.96,109375
2.25,-13.20,3.33,0.36,-2.63,-0.73,-79.14,4.08,-52.51,109410
4.45,-8.41,-0.15,0.17,-1.56,-0.54,-81.00,2.06,-47.40,109444
0.03,-9.03,-1.89,0.52,-0.75,-0.33,-82.42,0.18,-45.05,109478
2.50,-11.02,-2.18,-0.04,-0.52,0.24,-83.03,1.11,-43.12,109512
1.53,-9.61,-0.27,0.15,0.97,-0.03,-78.79,0.95,-45.70,109546
-0.92,-8.81,-1.04,0.14,0.52,-0.03,-81.45,1.02,-48.13,109581
2.79,-9.75,-0.29,0.19,-0.37,-0.05,-81.45,1.05,-46.74,109615
2.15,-9.21,-1.67,0.05,0.00,-0.15,-81.61,1.29,-47.21,109649
2.00,-9.42,-0.90,0.02,0.32,-0.06,-81.09,1.90,-47.57,109683
1.51,-10.07,-0.35,0.23,0.13,0.08,-80.88,2.38,-48.68,109717
1.55,-9.74,-1.06,0.29,-0.26,0.05,-81.70,2.97,-48.86,109751
0.81,-8.79,-2.08,0.29,-0.29,-0.10,-81.60,2.82,-48.95,109786
2.47,-9.51,-2.47,0.16,0.02,-0.18,-81.64,2.86,-49.08,109820
1.75,-8.92,-1.68,0.18,0.25,-0.20,-81.38,2.85,-49.90,109854
2.42,-9.68,-1.52,0.25,0.04,-0.19,-81.57,3.08,-50.56,109888
3.71,-9.35,-2.19,0.33,0.35,-0.21,-81.60,2.91,-52.31,109922
3.76,-8.76,-1.85,0.45,0.39,-0.23,-81.31,2.69,-53.65,109957
2.23,-9.40,-1.32,0.54,0.19,-0.25,-81.44,2.25,-55.19,109991
4.09,-8.68,-1.38,0.47,0.13,-0.46,-81.10,1.55,-56.11,110025
2.93,-9.59,-1.44,0.46,0.46,-0.47,-81.00,0.35,-58.01,110059
1.22,-10.98,-1.38,0.58,0.48,-0.54,-80.47,-1.94,-60.32,110093
-1.69,-13.94,-1.92,0.74,0.71,-0.76,-80.46,-3.33,-62.86,110127
0.84,-12.54,-1.68,0.69,0.98,-1.06,-79.29,-5.70,-66.02,110162
-4.11,-16.28,0.32,0.94,1.44,-1.33,-76.60,-8.24,-71.24,110196
5.74,-11.82,2.39,1.02,0.43,-2.07,-75.83,-11.49,-73.76,110230
6.37,-4.57,-11.39,1.08,-0.90,-2.35,-75.50,-17.14,-73.95,110264
-2.96,-6.21,-2.86,-0.32,-6.83,-3.31,-81.76,-22.04,-63.08,110298
2.26,-4.75,-3.11,0.30,-8.70,-3.05,-92.66,-29.03,-35.97,110333
3.89,-5.24,-4.47,0.80,-6.40,-1.70,-96.21,-32.77,-16.43,110367
23.61,-11.33,5.26,0.51,-1.42,0.03,-98.32,-32.51,-5.32,110401
7.73,-3.47,-2.35,1.09,2.27,-0.55,-101.55,-30.21,-9.03,110435
0.45,-4.84,0.58,1.46,2.44,0.36,-104.78,-26.72,-18.72,110469
7.82,-6.45,-0.32,0.63,-3.69,-0.19,-107.32,-23.72,-10.41,110503
17.44,-8.21,2.02,0.29,-2.10,0.08,-108.27,-21.13,-4.46,110538
10.17,-6.71,-1.58,-0.01,0.99,0.29,-110.42,-17.55,-7.47,110572
4.30,-4.70,-2.60,-0.08,1.10,0.36,-112.17,-13.30,-13.74,110606
5.55,-4.70,-4.41,-0.06,-0.15,0.38,-112.55,-9.76,-14.78,110640
4.57,-5.54,-3.80,0.13,-0.36,0.40,-114.25,-5.32,-14.40,110674
4.01,-5.39,-2.42,0.28,-0.41,0.54,-115.55,-1.01,-14.81,110708
2.30,-6.51,-2.95,0.63,-0.05,1.00,-115.92,4.37,-15.29,110743
2.75,-8.03,-1.80,0.72,-0.17,1.29,-117.61,12.82,-15.93,110777
5.33,-8.20,-2.38,0.59,-0.05,1.56,-117.67,21.12,-17.76,110811
2.64,-8.73,-1.71,0.45,1.25,1.94,-117.42,32.72,-24.82,110845
1.20,-9.37,-1.58,0.41,1.36,2.11,-115.29,43.69,-31.38,110879
10.13,-12.26,-1.63,0.18,1.74,1.72,-112.25,53.86,-37.78,110914
6.95,-8.24,2.73,0.07,1.25,0.09,-108.08,60.19,-45.94,110948
2.49,-6.46,1.91,0.31,-0.21,0.17,-107.28,62.86,-46.51,110982
5.59,-10.86,-0.50,0.57,-0.97,0.51,-106.17,66.50,-44.67,111016
3.22,-7.70,-2.54,0.57,-0.34,0.40,-104.44,68.05,-45.92,111050
2.53,-9.75,-2.43,0.43,-0.42,0.47,-103.24,71.18,-46.35,111084
4.06,-9.48,-1.55,0.18,0.05,0.30,-101.45,74.14,-47.76,111119
2.41,-9.76,-0.47,0.15,0.47,0.36,-98.87,76.56,-49.81,111153
2.30,-9.45,-0.35,0.17,0.31,0.33,-96.19,79.76,-52.50,111187
1.77,-9.59,-0.05,0.16,0.18,0.15,-93.79,81.37,-53.68,111221
1.73,-9.92,-0.66,0.24,-0.01,0.11,-92.52,83.25,-55.51,111255
2.53,-9.64,-0.20,0.35,-0.41,0.19,-90.92,85.46,-56.21,111290
1.43,-10.46,0.34,0.41,-0.16,0.29,-88.89,87.43,-56.64,111324
2.18,-9.59,-0.51,0.30,-0.24,0.18,-87.11,88.61,-57.79,111358
2.36,-9.26,-0.15,0.27,0.00,0.29,-84.65,90.30,-58.37,111392
1.02,-10.28,0.17,0.25,0.23,0.45,-81.26,91.93,-59.88,111426
2.01,-9.00,0.47,0.21,0.07,0.30,-77.83,93.61,-61.85,111460
0.49,-10.25,-0.13,0.14,0.19,0.22,-75.20,94.58,-62.99,111495
0.73,-8.76,-0.49,0.04,-0.07,-0.04,-73.37,95.63,-62.54,111529
1.73,-9.77,0.37,-0.02,-0.08,-0.09,-71.70,95.85,-63.07,111563
0.48,-9.68,0.84,-0.01,-0.07,-0.13,-70.71,96.80,-63.21,111597
0.18,-8.82,-0.00,0.26,-0.43,-0.20,-69.50,97.18,-63.01,111631
0.24,-9.43,0.55,0.16,-0.26,-0.07,-68.02,97.38,-62.86,111666
0.39,-10.06,0.06,0.15,-0.21,-0.09,-66.65,97.65,-62.99,111700
-1.36,-9.63,0.21,0.06,-0.17,-0.14,-65.01,97.65,-62.58,111734
1.19,-9.58,0.56,-0.08,-0.43,-0.37,-64.05,97.91,-61.33,111768
-0.03,-9.76,-0.53,0.11,-0.70,-0.52,-63.56,97.24,-59.00,111802
3.12,-8.96,-0.84,-0.06,-0.65,-0.61,-63.52,96.10,-56.90,111836
2.27,-8.13,-1.89,-0.24,0.36,-0.69,-63.31,95.85,-52.57,111871
3.21,-9.60,-1.14,-0.49,0.52,-0.84,-63.01,95.60,-54.60,111905
2.87,-7.60,-1.84,-0.37,0.16,-1.43,-64.64,94.21,-52.62,111939
1.22,-7.01,-2.96,-0.32,-0.50,-1.70,-68.94,91.93,-48.39,111973
2.29,-10.21,-2.88,-0.08,-1.01,-1.66,-73.14,89.80,-46.55,112007
1.03,-9.39,-3.08,0.37,-1.52,-1.93,-77.95,87.31,-43.25,112041
2.81,-9.66,-0.70,1.26,-2.77,-2.10,-85.19,84.01,-37.58,112076
2.36,-8.79,-0.89,1.81,-3.73,-2.31,-91.57,80.04,-31.98,112110
2.72,-11.02,-7.33,2.12,-3.78,-2.15,-98.09,76.69,-24.90,112144
3.61,-10.28,-7.90,1.88,-3.58,-2.08,-102.29,75.52,-18.85,112178
2.90,-8.32,-6.75,1.80,-3.35,-1.84,-105.70,74.71,-12.93,112212
2.48,-10.48,-8.38,1.95,-3.14,-1.25,-107.23,77.17,-7.57,112247
1.07,-10.90,-7.27,2.38,-2.74,-0.92,-106.78,80.42,-6.39,112281
4.12,-14.13,-12.33,3.14,-3.17,-0.48,-104.41,87.65,-7.54,112315
1.86,-5.55,-17.32,4.05,-4.77,-0.58,-99.90,92.43,-9.00,112349
-1.76,-13.65,-14.48,4.78,-5.07,-0.49,-93.88,96.05,-11.18,112383
-4.66,-9.98,-22.15,6.51,-7.54,-1.33,-89.04,95.78,-14.73,112417
1.37,-11.41,-25.98,6.27,-7.68,-0.48,-84.36,94.11,-16.98,112452
-3.11,-13.06,-18.70,6.30,-8.48,-1.10,-81.16,89.62,-18.08,112486
-7.48,-8.81,-26.40,6.26,-10.53,-1.22,-82.68,85.97,-10.23,112520
-2.96,-9.83,-23.88,5.82,-10.33,-1.04,-81.26,87.17,1.80,112554
-13.17,-13.40,-21.86,4.94,-9.79,-0.80,-72.98,96.54,16.62,112588
-12.98,-8.41,-26.92,4.24,-11.04,-0.84,-56.81,108.59,24.58,112623
-10.39,-11.22,-25.09,3.79,-10.59,-0.90,-37.02,123.06,17.66,112657
-11.76,-7.03,-23.95,3.62,-9.44,-0.80,-20.29,124.39,-0.44,112691
-14.90,-9.13,-22.59,3.72,-10.82,-0.95,-17.61,121.92,-19.25,112725
-14.18,-11.90,-24.62,3.33,-11.02,-0.89,-24.57,114.88,-32.67,112759
-13.87,-9.07,-22.84,2.89,-10.05,-0.86,-31.77,110.80,-34.86,112793
-10.47,-9.71,-21.38,2.40,-9.83,-0.73,-35.41,108.92,-33.62,112828
-14.69,-9.84,-19.53,2.46,-9.77,-0.66,-37.07,108.43,-32.97,112862
-14.13,-8.67,-21.41,2.09,-10.46,-0.86,-39.05,107.54,-33.35,112896
-15.77,-9.95,-21.14,1.92,-10.46,-0.90,-42.39,106.31,-31.99,112930
-17.32,-14.05,-21.07,1.91,-10.53,-0.83,-45.21,104.76,-29.23,112964
-17.80,-11.44,-22.88,2.07,-10.53,-0.89,-46.67,102.62,-26.76,112999
-16.11,-10.12,-23.35,1.83,-10.43,-1.01,-46.62,99.72,-21.46,113033
-16.13,-10.10,-22.87,2.01,-10.02,-0.63,-45.09,98.80,-18.04,113067
-13.39,-8.99,-19.98,2.17,-9.79,-0.32,-43.55,98.66,-13.72,113101
-14.90,-12.02,-20.98,2.17,-9.95,-0.36,-42.36,100.60,-9.34,113135
-14.02,-9.72,-22.17,2.01,-9.84,-0.46,-38.85,105.95,-3.99,113169
-15.37,-11.87,-21.08,2.06,-9.82,-0.20,-27.54,115.48,-0.75,113204
-13.17,-14.39,-19.97,1.80,-9.74,-0.43,-15.24,122.35,-6.14,113238
-13.74,-11.74,-21.67,1.89,-9.43,-0.57,-6.33,124.26,-20.83,113272
-15.46,-11.65,-21.81,2.13,-9.35,-0.32,-5.52,119.32,-41.36,113306
-13.65,-11.68,-20.40,2.13,-9.32,-0.17,-12.67,112.12,-53.29,113340
-14.77,-13.10,-21.51,1.99,-9.32,-0.08,-26.02,104.21,-56.43,113375
-12.55,-13.52,-21.52,1.82,-8.85,-0.13,-35.19,101.89,-54.27,113409
-13.83,-14.19,-21.66,1.78,-8.73,-0.10,-40.28,101.05,-49.78,113443
-13.77,-13.84,-22.27,1.75,-9.23,-0.29,-44.20,100.83,-47.14,113477
-13.09,-13.78,-22.83,1.75,-9.55,-0.26,-46.93,100.12,-44.91,113511
-9.35,-11.59,-22.85,1.50,-9.01,-0.39,-50.61,99.47,-41.87,113545
-9.83,-11.28,-20.79,1.54,-8.93,-0.27,-52.43,99.02,-38.06,113580
-10.24,-11.89,-21.31,1.68,-9.09,-0.20,-53.99,98.73,-33.29,113614
-7.80,-10.32,-17.53,1.50,-8.50,-0.15,-52.43,98.25,-26.81,113648
-12.31,-9.98,-20.28,1.49,-9.17,-0.58,-50.89,98.48,-20.70,113682
-12.83,-10.17,-23.18,1.50,-9.96,-1.01,-48.52,97.19,-13.24,113716
-13.15,-9.88,-23.44,1.52,-10.37,-1.25,-46.43,97.46,-5.48,113750
-12.24,-9.22,-23.11,1.51,-10.50,-1.36,-43.77,98.76,3.43,113785
-11.51,-9.28,-23.25,1.55,-10.49,-1.29,-36.64,103.62,13.27,113819
-9.71,-8.97,-22.52,1.41,-9.69,-1.34,-25.84,110.00,17.77,113853
-8.62,-8.11,-23.02,1.38,-9.10,-1.18,-13.30,115.29,14.91,113887
-6.33,-10.64,-19.33,1.26,-7.92,-0.73,0.15,118.27,2.47,113921
-5.71,-8.62,-15.38,1.29,-7.48,-0.46,5.23,117.77,-10.26,113956
-6.21,-8.22,-17.11,1.16,-8.18,-0.42,5.66,115.04,-22.96,113990
-3.62,-6.22,-18.90,1.13,-8.82,-0.91,0.85,112.95,-30.91,114024
-5.23,-8.85,-19.88,1.03,-9.39,-0.98,-5.25,111.87,-34.43,114058
-9.10,-8.50,-17.37,1.05,-9.51,-1.22,-12.55,110.60,-36.14,114092
-7.51,-7.05,-18.32,1.17,-11.11,-1.72,-20.64,109.87,-36.89,114126
-9.80,-9.43,-19.28,1.26,-11.60,-1.57,-32.65,108.59,-34.73,114161
-8.45,-7.53,-17.90,1.11,-11.13,-1.74,-38.09,107.07,-30.06,114195
-8.58,-8.00,-19.70,1.21,-10.74,-1.51,-43.44,105.48,-22.98,114229
-9.29,-7.73,-18.12,1.12,-10.13,-1.53,-46.29,104.79,-13.83,114263
-9.90,-7.61,-21.27,1.39,-10.55,-1.53,-45.31,104.98,-5.58,114297
-8.68,-6.53,-18.06,1.45,-10.31,-1.41,-42.62,104.71,1.24,114332
-6.87,-7.48,-18.83,1.38,-10.26,-1.28,-36.98,105.77,9.34,114366
-7.78,-8.84,-16.94,1.34,-9.24,-0.89,-28.98,108.51,13.56,114400
-6.10,-7.39,-16.63,1.19,-8.79,-0.89,-16.81,112.32,17.30,114434
-7.17,-8.66,-15.99,1.10,-8.56,-0.84,-5.03,115.35,14.88,114468
-10.14,-10.04,-16.79,1.21,-8.96,-1.00,7.32,117.83,7.28,114502
-9.85,-6.56,-18.73,1.20,-9.69,-1.31,14.89,117.04,-10.45,114537
-10.63,-8.62,-22.29,1.30,-10.50,-1.36,12.86,115.48,-27.36,114571
-13.62,-9.69,-20.61,1.46,-10.87,-1.32,3.26,111.43,-40.94,114605
-8.95,-10.36,-21.10,1.23,-11.40,-1.59,-14.41,108.46,-44.10,114639
-10.31,-8.59,-22.08,1.19,-10.73,-1.52,-26.92,106.65,-40.38,114673
-6.57,-9.59,-20.12,1.20,-9.95,-1.39,-35.52,106.33,-33.79,114708
-10.60,-7.92,-17.93,1.32,-9.73,-1.28,-40.02,106.15,-29.76,114742
-9.88,-9.09,-19.59,1.32,-9.63,-1.38,-43.61,105.96,-25.07,114776
-10.26,-9.82,-20.07,1.37,-9.58,-1.22,-46.00,106.11,-19.54,114810
-6.76,-9.19,-17.85,1.24,-9.24,-1.26,-46.62,106.43,-13.59,114844
-7.79,-8.34,-20.05,1.28,-9.72,-1.37,-45.88,106.43,-6.12,114878
-7.56,-9.08,-19.73,1.24,-9.54,-1.35,-42.24,106.42,-1.21,114913
-7.18,-8.21,-20.33,1.05,-9.99,-1.67,-39.45,106.91,4.88,114947
-7.93,-6.19,-21.18,0.95,-10.06,-1.86,-35.08,106.47,12.96,114981
-8.57,-7.56,-21.32,1.05,-10.67,-1.85,-28.52,107.66,20.24,115015
-7.59,-8.65,-19.99,1.01,-10.83,-1.75,-15.45,111.21,26.43,115049
-6.42,-7.46,-19.75,1.02,-10.63,-1.55,0.35,113.78,24.23,115083
-1.80,-6.33,-17.65,0.81,-9.51,-1.20,13.84,115.07,14.44,115118
-2.35,-5.75,-15.52,0.61,-8.84,-1.29,21.27,115.30,-2.41,115152
-3.68,-7.24,-16.27,0.49,-9.03,-1.53,19.28,114.92,-14.24,115186
-5.68,-6.51,-16.41,0.49,-9.63,-2.16,8.07,114.18,-25.12,115220
-8.85,-7.05,-18.22,0.73,-11.07,-2.55,-3.52,113.56,-29.11,115254
-9.07,-6.18,-19.48,1.00,-11.82,-2.60,-16.12,112.44,-28.05,115289
-8.21,-6.94,-18.15,1.29,-12.06,-2.43,-27.61,111.94,-23.62,115323
-7.65,-7.99,-17.70,1.32,-11.86,-2.23,-33.09,111.14,-18.21,115357
-6.84,-7.88,-16.74,1.14,-10.84,-2.00,-36.35,111.33,-11.60,115391
-5.46,-7.83,-15.70,0.93,-9.89,-1.98,-37.55,110.57,-6.14,115425
-6.52,-7.61,-15.93,0.93,-9.61,-1.95,-37.68,110.38,-1.80,115459
-6.47,-7.17,-16.27,0.90,-9.61,-2.09,-37.14,109.06,3.71,115494
-7.09,-6.60,-18.72,0.84,-9.50,-2.12,-36.19,108.39,8.23,115528
-4.74,-7.00,-18.63,0.73,-8.74,-1.85,-34.49,107.85,14.98,115562
-3.79,-8.46,-13.69,0.65,-7.74,-1.48,-29.82,109.18,22.57,115596
-3.96,-6.89,-14.25,0.72,-8.30,-1.46,-22.10,111.22,28.72,115630
-2.94,-6.79,-15.17,0.73,-8.27,-1.20,-7.63,114.38,31.31,115665
-1.96,-6.35,-13.95,0.67,-7.60,-1.11,6.23,116.46,28.27,115699
-0.67,-7.19,-12.57,0.60,-7.48,-0.98,19.06,117.42,20.11,115733
-1.44,-6.10,-13.90,0.54,-8.04,-1.54,26.94,117.71,5.82,115767
-3.39,-7.27,-14.13,0.50,-8.70,-1.80,27.10,118.39,-8.49,115801
-7.76,-7.64,-14.68,0.58,-9.88,-2.26,17.55,118.37,-23.79,115835
-7.87,-7.16,-17.55,0.78,-11.44,-2.70,3.04,117.17,-32.14,115870
-7.27,-6.89,-18.00,0.99,-12.09,-2.72,-13.68,115.51,-33.22,115904
-6.58,-7.17,-15.63,1.15,-12.24,-2.63,-29.61,113.46,-26.10,115938
-6.30,-8.94,-15.57,1.14,-12.04,-2.52,-37.46,112.76,-16.75,115972
-6.31,-8.43,-15.65,1.12,-10.75,-2.27,-40.49,112.51,-6.64,116006
-5.84,-9.54,-14.23,1.05,-9.17,-1.76,-38.64,113.17,-1.86,116041
-6.00,-8.34,-14.33,1.03,-8.70,-1.55,-36.19,113.26,0.15,116075
-5.14,-8.39,-15.61,1.07,-8.61,-1.35,-31.75,112.95,0.38,116109
-5.46,-8.07,-13.24,0.97,-8.38,-1.14,-29.28,113.04,0.19,116143
-2.95,-5.52,-15.37,0.96,-8.94,-1.25,-28.25,112.39,1.10,116177
-4.18,-6.83,-14.34,0.89,-8.31,-0.95,-26.97,113.81,3.35,116211
-2.23,-5.95,-13.40,0.64,-8.35,-1.20,-24.89,116.16,9.08,116246
-2.39,-6.11,-14.04,0.49,-8.32,-1.37,-19.75,120.01,15.36,116280
-1.93,-6.21,-14.22,0.36,-8.21,-1.50,-12.99,122.90,18.94,116314
-2.15,-7.15,-13.82,0.38,-8.23,-1.58,-5.19,126.12,19.19,116348
-4.46,-7.23,-14.25,0.39,-8.68,-1.82,4.22,128.46,14.91,116382
-5.29,-7.42,-17.06,0.45,-10.15,-2.29,9.12,130.53,6.97,116416
-6.01,-7.67,-16.86,0.59,-10.86,-2.40,7.19,130.43,-5.57,116451
-8.16,-8.22,-16.13,0.82,-11.63,-2.51,0.12,129.58,-13.50,116485
-5.00,-6.91,-15.16,0.95,-11.93,-2.38,-9.65,127.26,-17.38,116519
-2.91,-6.51,-12.62,0.95,-10.65,-1.95,-18.52,124.77,-15.89,116553
-6.42,-7.09,-11.19,0.90,-9.81,-1.76,-21.95,122.92,-12.04,116587
-6.41,-7.76,-11.74,0.83,-9.52,-1.87,-22.90,120.91,-7.56,116622
-8.06,-6.24,-15.19,0.88,-9.43,-1.85,-21.46,119.31,-5.92,116656
-9.95,-8.47,-15.52,0.91,-9.09,-1.78,-19.07,117.95,-7.07,116690
-7.93,-8.74,-14.09,1.00,-9.51,-1.72,-17.55,116.06,-10.90,116724
-7.00,-9.33,-14.70,0.99,-10.09,-1.73,-18.99,113.93,-13.42,116758
-6.63,-7.54,-14.25,0.98,-9.85,-1.60,-23.59,112.22,-14.97,116792
-3.70,-7.59,-13.26,0.63,-8.89,-1.47,-28.18,112.12,-12.64,116827
-4.80,-7.54,-15.14,0.47,-7.90,-1.36,-31.76,112.45,-5.96,116861
-4.16,-8.02,-11.67,0.44,-6.71,-1.05,-33.27,116.05,-0.42,116895
-6.62,-9.95,-12.18,0.67,-8.41,-1.32,-30.24,119.29,7.15,116929
-8.07,-8.02,-15.72,0.90,-8.95,-1.32,-22.96,125.72,13.17,116963
-2.68,-6.77,-13.39,0.86,-8.23,-0.88,-11.93,130.88,13.39,116998
-1.07,-7.46,-10.70,0.67,-7.60,-0.75,-0.82,133.78,8.27,117032
-3.52,-9.26,-11.83,0.68,-7.85,-1.01,7.06,136.26,-2.72,117066
-8.37,-8.73,-12.43,0.78,-8.70,-1.42,8.08,136.20,-14.85,117100
-9.40,-8.08,-16.11,0.85,-9.96,-1.84,-0.20,134.55,-27.96,117134
-10.27,-7.59,-17.94,0.81,-10.29,-2.03,-12.35,131.48,-33.73,117168
-8.80,-7.22,-19.85,0.87,-10.95,-2.26,-25.91,127.70,-32.14,117203
-7.14,-7.59,-18.41,0.92,-11.09,-2.19,-37.71,124.25,-20.46,117237
-5.69,-7.63,-16.70,0.99,-10.93,-2.04,-40.16,122.71,-9.79,117271
-4.06,-7.98,-16.29,0.94,-10.30,-1.73,-37.37,121.21,0.63,117305
-3.34,-8.05,-13.74,0.80,-8.67,-1.17,-28.97,120.89,3.19,117339
-5.74,-7.16,-11.56,0.64,-8.04,-1.21,-21.50,120.77,2.54,117374
-6.09,-7.52,-15.29,0.75,-8.69,-1.13,-15.57,118.39,-2.65,117408
-6.43,-7.45,-13.86,0.63,-8.20,-1.00,-13.07,116.40,-6.17,117442
-4.48,-8.12,-14.78,0.60,-9.07,-1.13,-13.34,115.52,-9.06,117476
-4.52,-7.57,-16.65,0.49,-9.63,-1.36,-16.38,115.84,-9.18,117510
-4.60,-7.76,-14.15,0.47,-9.17,-1.29,-18.36,117.90,-6.15,117544
-7.53,-9.22,-9.99,0.56,-9.15,-1.40,-17.98,122.11,-2.27,117579
-8.04,-9.77,-11.28,0.52,-9.81,-1.65,-16.79,125.91,1.84,117613
-11.68,-8.98,-13.61,0.78,-9.63,-1.57,-12.74,129.55,2.22,117647
-12.00,-8.49,-13.60,0.91,-9.58,-1.40,-6.14,133.67,-3.84,117681
-10.76,-9.06,-15.68,1.05,-9.82,-1.44,-3.27,137.02,-12.86,117715
-10.75,-9.46,-15.76,1.23,-9.61,-1.23,-4.41,136.57,-26.45,117750
-8.25,-10.21,-14.65,1.24,-9.76,-1.26,-11.65,134.11,-35.97,117784
-4.74,-9.23,-15.33,1.12,-9.48,-1.30,-21.57,130.43,-39.14,117818
-4.65,-10.49,-15.60,0.98,-8.08,-1.18,-32.93,126.02,-36.86,117852
-4.17,-8.74,-13.17,0.90,-7.20,-0.95,-38.86,123.27,-32.30,117886
-6.87,-10.60,-12.18,1.00,-7.55,-0.85,-40.66,121.60,-24.04,117920
-8.57,-10.80,-13.47,1.06,-8.36,-1.06,-39.65,120.26,-16.72,117955
-7.76,-11.49,-15.54,1.08,-8.12,-0.90,-34.99,119.18,-10.98,117989
-4.82,-9.63,-12.96,1.06,-7.30,-0.43,-25.14,117.23,-11.43,118023
-0.85,-10.60,-11.12,1.15,-7.04,-0.06,-16.27,113.69,-16.33,118057
-2.09,-9.65,-10.99,1.08,-6.61,-0.12,-11.01,105.45,-22.00,118091
-4.58,-7.64,-14.87,1.04,-7.53,-0.77,-9.92,102.98,-27.80,118125
-8.96,-8.95,-15.68,1.03,-8.11,-0.99,-14.05,99.01,-31.91,118160
-8.33,-7.96,-17.09,0.98,-9.07,-1.54,-23.27,96.00,-31.94,118194
-7.65,-8.89,-17.90,1.06,-9.20,-1.39,-31.45,95.26,-28.65,118228
-10.34,-10.71,-18.64,1.36,-9.58,-1.21,-38.12,96.64,-21.65,118262
-9.19,-8.29,-19.62,1.31,-10.27,-1.27,-42.41,101.36,-11.52,118296
-3.45,-8.01,-19.31,1.24,-10.70,-1.22,-41.92,108.45,-1.15,118331
-1.87,-7.89,-19.46,0.79,-9.88,-1.38,-36.10,116.15,9.72,118365
-3.38,-6.63,-17.77,0.58,-8.49,-1.27,-29.63,121.72,14.48,118399
-2.57,-7.71,-12.91,0.52,-8.64,-1.38,-22.46,125.78,16.53,118433
-6.46,-7.60,-15.58,0.57,-9.84,-1.69,-15.64,128.88,15.83,118467
-3.09,-8.16,-14.03,0.60,-8.94,-1.15,-10.01,129.29,12.70,118501
-3.27,-7.62,-10.64,0.63,-8.32,-0.81,-4.63,128.60,8.27,118536
-1.68,-6.74,-11.63,0.76,-8.55,-0.71,-0.67,127.11,4.12,118570
-1.84,-7.33,-12.33,0.52,-8.37,-0.99,2.03,124.77,0.83,118604
-4.72,-7.73,-12.26,0.45,-8.60,-1.40,3.42,122.46,-2.73,118638
-5.90,-7.06,-14.64,0.44,-9.77,-1.95,3.64,120.59,-6.34,118672
-8.92,-8.83,-12.13,0.50,-9.67,-2.00,2.54,117.51,-11.44,118707
-6.82,-6.26,-15.20,0.68,-10.73,-2.29,-1.77,113.97,-17.11,118741
-4.40,-7.48,-13.07,0.77,-10.37,-1.98,-7.26,111.75,-22.30,118775
-4.16,-7.80,-11.73,0.76,-10.23,-1.94,-16.49,108.75,-24.54,118809
-2.87,-7.13,-14.64,0.88,-9.27,-1.72,-24.51,107.48,-23.37,118843
-1.80,-7.13,-11.50,0.75,-7.38,-1.21,-30.65,107.44,-19.37,118877
-1.36,-7.29,-7.67,0.57,-6.91,-1.17,-34.93,109.69,-13.43,118912
-5.74,-8.62,-11.46,0.60,-8.09,-1.53,-37.68,112.44,-5.88,118946
-5.28,-7.20,-14.45,0.60,-7.23,-1.48,-38.37,116.78,3.95,118980
-1.26,-8.60,-10.94,0.56,-6.75,-1.26,-35.50,122.07,10.79,119014
-5.81,-7.19,-11.79,0.65,-8.06,-1.60,-30.42,126.97,16.40,119048
-0.35,-7.34,-13.01,0.57,-7.85,-1.47,-21.35,132.08,18.01,119083
-3.52,-7.08,-10.87,0.61,-6.79,-1.15,-12.96,135.55,15.59,119117
-4.06,-7.49,-12.91,0.61,-8.11,-1.48,-6.87,137.31,8.52,119151
-3.27,-7.84,-14.66,0.59,-8.62,-1.60,-3.93,137.53,2.28,119185
-0.67,-6.85,-12.82,0.48,-8.44,-1.46,-4.72,136.77,-3.16,119219
-0.29,-7.28,-11.84,0.33,-9.07,-1.76,-8.20,135.52,-5.82,119253
0.28,-6.45,-14.75,0.26,-9.64,-2.04,-13.02,133.51,-4.19,119288
-0.34,-6.34,-11.71,0.11,-8.64,-1.93,-16.33,131.94,3.48,119322
-0.11,-7.13,-10.89,-0.03,-9.32,-2.50,-18.43,129.52,6.52,119356
0.17,-6.84,-11.41,-0.02,-9.26,-2.57,-18.91,128.00,11.21,119390
-2.21,-7.75,-8.90,0.13,-8.99,-2.44,-17.33,126.37,15.96,119424
-2.69,-8.50,-8.30,0.28,-9.62,-2.63,-15.87,125.72,17.76,119458
-1.36,-7.00,-9.54,0.47,-9.48,-2.55,-13.94,125.11,17.66,119493
-0.69,-7.66,-9.48,0.40,-8.73,-2.41,-13.42,126.13,18.15,119527
-1.39,-7.00,-9.75,0.39,-8.34,-2.47,-13.84,127.29,19.64,119561
-2.26,-8.01,-12.44,0.36,-8.43,-2.60,-14.38,128.40,23.55,119595
-3.67,-6.93,-11.80,0.59,-9.06,-2.76,-13.31,129.25,26.83,119629
-0.98,-7.68,-13.18,0.60,-10.60,-2.97,-8.74,130.75,29.32,119664
0.37,-6.74,-10.30,0.65,-10.12,-2.65,0.51,132.90,29.17,119698
3.96,-7.24,-7.08,0.37,-8.79,-2.03,9.28,134.27,24.01,119732
1.93,-7.01,-8.19,0.09,-7.45,-1.70,15.61,135.12,16.21,119766
1.83,-7.87,-8.92,-0.03,-6.70,-1.63,17.96,136.76,10.03,119800
-0.58,-5.49,-8.65,-0.19,-7.10,-1.90,17.22,136.85,4.11,119834
3.60,-8.81,-8.73,-0.32,-6.57,-1.79,12.96,137.28,0.03,119869
1.83,-9.31,-5.50,-0.27,-7.03,-1.75,8.90,137.12,-2.02,119903
-0.06,-9.47,-4.72,-0.13,-7.68,-1.83,3.83,137.62,-2.97,119937
0.66,-9.17,-5.50,0.23,-7.35,-1.57,-1.80,137.55,-4.12,119971
0.67,-8.70,-3.91,0.20,-6.21,-1.15,-4.36,136.57,-4.79,120005
0.03,-8.74,-4.39,0.08,-6.09,-1.20,-7.61,136.26,-2.89,120040
-2.66,-8.78,-3.62,0.03,-5.85,-1.15,-10.00,135.72,-0.99,120074
-2.37,-11.37,2.60,0.21,-5.11,-0.88,-10.30,135.28,3.49,120108
-4.32,-10.44,-0.87,0.44,-5.76,-1.07,-10.99,134.83,-0.48,120142
-4.71,-7.92,-5.34,0.08,-5.50,-1.59,-13.58,133.57,1.40,120176
-7.33,-10.98,-4.05,-0.03,-5.55,-1.92,-17.29,133.06,3.39,120210
-6.76,-7.70,-8.39,0.36,-6.76,-2.37,-20.77,131.85,5.44,120245
-6.18,-8.16,-5.40,0.85,-8.31,-2.43,-23.46,132.49,6.36,120279
-3.17,-9.07,-5.51,0.93,-8.73,-2.55,-27.11,132.78,6.50,120313
-2.90,-9.19,-9.49,1.22,-7.83,-2.33,-30.69,133.21,6.81,120347
-3.01,-9.74,-8.32,1.14,-6.42,-1.65,-32.81,135.40,8.37,120381
-6.19,-10.05,-11.97,1.41,-6.75,-1.75,-33.15,137.50,9.15,120416
-6.29,-9.63,-9.68,1.52,-7.78,-1.72,-32.18,139.87,12.99,120450
21.95,-8.25,-1.35,1.13,-7.03,-2.04,-28.92,143.13,16.14,120484
2.81,-12.18,-2.23,1.17,-3.89,-0.91,-23.76,144.69,13.26,120518
3.79,-9.06,3.39,1.33,-0.78,-0.20,-19.85,145.02,8.78,120552
4.91,-0.91,-5.21,1.43,-2.50,-0.12,-14.13,145.38,3.05,120586
0.36,-12.31,-3.75,1.39,-1.11,0.43,-7.40,146.20,-3.19,120621
1.62,-11.16,-4.34,1.46,-3.31,-0.50,-1.74,145.13,-11.63,120655
4.37,-4.74,-0.86,1.53,-2.55,-0.25,2.13,143.79,-19.56,120689
-1.71,-11.50,-1.22,1.43,-2.11,0.11,7.83,142.01,-28.71,120723
-6.84,-16.76,-6.66,1.65,-3.48,-0.09,11.20,139.07,-37.91,120757
5.06,-6.05,-2.53,1.24,-2.13,-0.20,12.83,134.96,-46.13,120791
-3.21,-13.19,-2.91,1.20,-2.26,0.55,18.97,128.71,-55.89,120826
3.41,-8.63,-0.64,1.48,-2.58,0.34,22.32,122.49,-64.25,120860
-3.81,-12.61,-7.15,1.47,-3.77,0.01,22.32,113.23,-76.32,120894
5.71,-10.20,-8.82,0.92,-4.66,-0.08,14.48,105.60,-84.98,120928
4.92,-9.84,-3.70,0.90,-2.06,0.10,11.49,98.87,-88.67,120962
-0.61,-9.29,-4.86,0.99,-2.72,-0.02,8.78,91.16,-93.58,120997
1.13,-12.55,-5.36,1.21,-4.07,0.04,1.39,84.93,-97.47,121031
-0.27,-12.71,-4.91,1.58,-3.83,0.13,-6.75,77.95,-101.14,121065
-2.17,-11.79,-7.15,2.00,-4.41,0.29,-16.68,68.78,-103.64,121099
-1.89,-10.98,-8.06,2.19,-5.69,0.14,-28.75,61.72,-103.79,121133
3.21,-10.11,-10.08,2.02,-6.76,0.10,-46.59,54.11,-100.01,121167
4.25,-9.80,-7.79,1.99,-5.44,0.22,-58.64,49.39,-93.79,121202
3.44,-9.05,-5.98,1.66,-4.38,0.48,-67.36,46.64,-87.85,121236
4.11,-9.39,-3.79,1.12,-4.59,0.30,-77.16,45.10,-79.19,121270
4.63,-9.15,-4.00,0.86,-3.78,0.24,-83.44,44.58,-70.32,121304
0.24,-9.72,-3.91,0.96,-3.12,0.33,-88.13,45.03,-62.03,121338
2.50,-10.51,-3.60,0.83,-3.18,0.45,-91.49,46.27,-54.49,121373
1.14,-10.13,-2.44,0.96,-2.64,0.64,-93.61,48.71,-47.63,121407
3.46,-9.35,-0.43,0.57,-2.83,0.37,-95.44,52.57,-38.60,121441
2.29,-9.56,-2.83,0.40,-2.60,0.30,-95.69,54.24,-31.51,121475
3.03,-8.57,-3.60,0.44,-2.17,0.27,-95.94,57.98,-24.80,121509
1.96,-8.16,-3.02,0.29,-2.27,0.01,-94.93,60.00,-19.15,121543
1.47,-9.79,-1.90,0.33,-2.77,-0.24,-94.93,61.62,-12.34,121578
2.51,-9.35,-2.60,0.28,-3.29,-0.35,-94.45,62.98,-0.83,121612
2.85,-8.91,-4.55,0.48,-3.01,-0.42,-92.91,64.62,7.78,121646
2.32,-9.20,-3.19,0.48,-1.89,-0.13,-91.38,66.30,13.33,121680
2.16,-9.46,-1.07,0.49,-1.70,-0.04,-89.32,68.14,16.82,121714
5.93,-8.78,-0.87,0.44,-1.48,0.05,-86.99,70.78,19.88,121749
1.51,-8.94,-0.50,0.48,-0.87,0.03,-85.25,72.76,21.19,121783
2.47,-10.20,0.04,0.34,-1.36,-0.04,-84.19,73.66,24.03,121817
1.69,-9.20,-1.38,0.35,-1.09,-0.06,-82.48,74.92,26.48,121851
2.97,-8.84,-1.01,0.24,-1.14,-0.06,-80.17,76.60,28.82,121885
2.91,-9.06,-0.57,0.18,-0.62,-0.02,-79.35,77.45,30.05,121919
3.48,-9.29,-0.64,0.08,-0.55,-0.16,-78.76,78.34,31.83,121954
2.95,-9.11,-1.08,-0.01,-0.41,-0.25,-78.60,78.30,32.10,121988
3.20,-9.31,-1.35,-0.07,0.17,-0.21,-78.94,77.93,31.99,122022
2.43,-9.43,-0.88,-0.08,0.38,-0.22,-80.14,77.58,31.47,122056
2.29,-9.81,-0.10,-0.08,0.24,-0.21,-81.10,77.30,30.21,122090
2.33,-9.29,-0.36,0.03,0.37,-0.15,-81.95,76.28,30.28,122125
1.16,-10.11,0.18,0.07,0.20,-0.07,-82.74,75.59,28.56,122159
1.92,-9.75,-0.46,0.08,0.04,-0.05,-82.43,75.87,28.78,122193
1.88,-9.38,-0.00,0.04,0.15,-0.02,-82.55,76.15,28.24,122227
2.82,-9.40,-0.36,0.01,-0.06,-0.09,-82.67,75.91,27.78,122261
2.09,-9.28,-0.14,-0.01,0.07,-0.13,-82.91,75.59,27.08,122295
0.08,-10.28,-0.54,-0.04,-0.27,-0.20,-82.86,75.07,28.12,122330
3.07,-9.27,-0.98,-0.00,-0.05,-0.17,-83.40,74.80,28.95,122364
0.67,-9.79,0.26,0.07,-0.03,-0.01,-83.16,75.21,29.06,122398
2.20,-9.19,0.01,0.09,-0.32,-0.06,-83.18,74.69,29.17,122432
1.28,-9.66,-0.43,0.03,-0.09,-0.09,-82.71,75.36,29.64,122466
2.48,-9.29,-0.46,0.04,0.04,-0.02,-82.61,75.46,28.53,122500
1.76,-9.76,-0.12,0.01,0.14,0.02,-83.15,75.86,27.95,122535
2.24,-9.76,-0.06,0.03,0.09,-0.03,-82.68,76.03,28.43,122569
2.35,-9.70,-0.05,0.00,-0.01,-0.09,-82.86,76.19,27.77,122603
1.61,-9.71,-0.28,0.04,-0.08,-0.10,-83.10,76.18,28.06,122637
1.58,-10.01,-0.54,0.01,-0.10,-0.11,-82.93,76.07,28.38,122671
2.15,-9.84,-0.27,0.06,-0.10,-0.05,-82.59,76.40,28.21,122706
1.07,-9.77,0.18,0.08,0.01,0.01,-82.30,76.83,28.79,122740
2.30,-9.33,0.68,0.15,-0.44,-0.05,-81.76,77.40,28.34,122774
1.09,-9.69,-0.07,0.15,-0.24,-0.06,-81.72,77.86,28.47,122808
1.34,-9.57,-0.16,0.24,-0.51,-0.03,-81.16,78.65,29.07,122842
1.43,-9.53,-0.31,0.32,-0.66,0.04,-79.73,80.04,30.01,122876
1.47,-9.50,-0.52,0.32,-0.64,0.05,-78.31,81.51,30.52,122911
2.09,-9.52,-1.02,0.19,-0.51,0.04,-77.21,82.05,31.06,122945
0.81,-9.59,-0.29,0.09,-0.03,0.04,-76.59,83.85,31.38,122979
3.10,-9.73,0.16,0.04,-0.42,-0.15,-76.56,84.33,31.50,123013
1.19,-10.10,0.72,0.15,-0.35,-0.09,-76.22,84.30,32.27,123047
2.87,-9.91,0.05,0.26,-1.07,-0.19,-75.11,85.53,32.89,123082
1.07,-8.89,-0.44,0.25,-0.81,-0.20,-74.03,86.63,34.19,123116
1.47,-9.04,-1.42,0.13,-0.27,0.00,-72.96,86.79,33.84,123150
0.91,-9.27,-0.80,0.09,-0.28,0.01,-72.87,87.11,34.32,123184
2.64,-9.03,0.25,0.12,-0.49,-0.05,-71.89,87.77,34.38,123218
1.93,-9.98,-0.56,0.06,-0.18,0.05,-71.28,89.55,35.59,123252
0.28,-10.76,-0.49,0.07,0.01,0.14,-70.90,89.54,34.71,123287
2.51,-9.60,-0.32,0.03,-0.09,-0.03,-70.61,89.87,35.47,123321
1.95,-9.53,-0.64,0.08,-0.10,0.03,-70.42,91.08,35.49,123355
1.77,-9.61,-0.60,0.12,-0.12,0.08,-70.11,91.80,34.68,123389
2.02,-9.46,-0.12,0.05,-0.21,-0.01,-69.72,92.44,35.84,123423
1.71,-9.61,-0.15,0.02,-0.23,-0.09,-69.04,92.91,35.19,123458
2.03,-9.69,-0.63,0.04,-0.31,-0.10,-68.87,92.56,36.44,123492
2.04,-9.65,-0.57,0.07,-0.17,-0.04,-68.44,93.13,36.22,123526
2.16,-9.54,-0.51,0.05,-0.22,-0.05,-67.87,93.48,35.94,123560
2.31,-9.58,-0.67,0.05,-0.11,-0.05,-67.96,93.28,35.71,123594
1.68,-9.61,-0.60,0.02,-0.02,-0.07,-67.80,93.32,36.38,123628
1.89,-9.56,-0.47,0.01,-0.12,-0.08,-68.56,93.13,35.90,123663
1.91,-9.50,-0.49,0.02,-0.07,-0.08,-68.21,92.65,36.48,123697
1.84,-9.60,-0.45,-0.01,-0.10,-0.11,-67.83,92.93,37.40,123731
1.63,-9.53,-0.80,-0.01,0.03,-0.14,-68.55,91.82,37.02,123765
2.08,-9.66,-0.52,-0.06,-0.05,-0.23,-68.77,91.51,38.09,123799
1.56,-10.04,-0.89,-0.06,-0.02,-0.26,-69.42,91.16,37.72,123833
1.64,-9.93,-0.49,0.02,0.01,-0.19,-70.15,89.80,37.61,123868
2.10,-9.84,-0.18,0.04,-0.04,-0.17,-70.91,89.64,38.60,123902
1.54,-9.73,0.02,0.10,0.05,-0.11,-70.65,89.54,37.52,123936
2.13,-9.55,-0.11,0.12,-0.16,-0.05,-70.55,89.62,37.75,123970
1.08,-9.50,-0.59,0.11,-0.03,-0.01,-70.86,89.33,37.69,124004
1.82,-9.51,-0.57,0.08,-0.10,-0.03,-70.05,90.22,37.09,124039
1.78,-9.48,-0.15,0.07,-0.07,0.00,-70.23,90.60,37.24,124073
1.99,-9.67,-0.16,0.07,-0.07,0.02,-70.15,90.40,36.99,124107
1.83,-9.65,-0.53,0.08,-0.10,-0.01,-69.69,91.23,37.80,124141
1.95,-9.34,-0.65,0.05,-0.07,-0.02,-69.69,90.79,37.12,124175
1.80,-9.36,-0.69,0.04,-0.11,-0.05,-69.35,90.75,38.03,124209
2.14,-10.11,-0.70,0.03,-0.15,-0.08,-69.41,90.59,38.16,124244
1.95,-9.65,-0.20,0.01,0.01,-0.10,-69.19,90.73,38.23,124278
1.47,-9.71,-0.17,0.04,-0.06,-0.09,-69.64,89.99,38.19,124312
1.70,-9.62,-0.58,0.05,-0.13,-0.08,-69.70,90.32,38.28,124346
1.46,-9.55,-0.59,0.05,-0.07,-0.07,-69.19,90.54,38.78,124380
1.54,-9.59,-0.37,0.03,-0.07,-0.08,-69.51,90.56,38.25,124415
1.82,-9.64,-0.29,0.04,-0.10,-0.09,-68.81,90.54,38.28,124449
1.87,-9.73,-0.40,0.04,-0.10,-0.06,-69.32,90.49,38.67,124483
1.61,-9.67,-0.44,0.04,-0.02,-0.05,-69.56,89.96,38.67,124517
1.75,-9.46,-0.51,0.04,-0.04,-0.05,-69.29,90.15,39.33,124551
2.16,-9.60,-0.67,0.03,-0.08,-0.08,-69.44,90.12,38.78,124585
1.66,-9.64,-0.68,0.03,-0.06,-0.10,-69.60,90.24,38.80,124620
1.87,-9.63,-0.51,0.04,-0.06,-0.10,-69.25,89.74,38.91,124654
1.54,-9.59,-0.50,0.05,-0.04,-0.09,-69.16,89.89,38.76,124688
1.65,-9.66,-0.47,0.04,-0.09,-0.11,-69.32,90.18,39.17,124722
1.61,-9.82,-0.46,0.02,-0.10,-0.13,-69.82,89.54,40.09,124756
1.99,-9.67,-0.55,0.04,-0.09,-0.11,-70.24,89.29,39.71,124791
1.57,-9.66,-0.62,0.06,-0.07,-0.09,-70.14,89.52,39.84,124825
1.65,-9.62,-0.78,0.05,-0.12,-0.12,-70.05,89.48,39.54,124859
2.24,-9.52,-0.39,0.06,-0.06,-0.07,-69.86,89.58,39.67,124893
1.73,-9.74,-0.36,0.05,0.01,-0.05,-70.39,89.71,39.86,124927
1.79,-9.46,-0.54,0.05,-0.16,-0.10,-70.14,89.45,39.49,124961
2.04,-9.26,-0.84,0.03,-0.14,-0.11,-69.82,88.95,39.59,124996
1.89,-9.48,-0.60,0.01,-0.07,-0.14,-70.23,89.16,39.58,125030
1.95,-9.96,-0.43,-0.03,-0.12,-0.16,-70.15,89.13,40.24,125064
2.08,-9.80,-0.26,0.00,-0.07,-0.12,-70.53,88.72,41.06,125098
1.80,-9.74,-0.46,0.02,-0.08,-0.09,-70.65,88.82,41.03,125132
1.69,-9.62,-0.61,0.02,-0.09,-0.07,-70.65,88.50,40.91,125166
2.00,-9.51,-0.83,-0.01,-0.08,-0.10,-70.87,88.29,41.14,125201
1.86,-9.50,-0.74,0.02,-0.04,-0.07,-71.02,88.67,41.38,125235
2.08,-9.49,-0.87,0.01,-0.13,-0.10,-71.22,88.91,41.00,125269
1.90,-9.62,-0.65,0.01,-0.07,-0.11,-70.42,88.86,41.52,125303
1.96,-9.51,-0.95,0.00,-0.13,-0.16,-70.64,88.19,42.25,125337
1.82,-9.75,-0.85,0.03,-0.05,-0.14,-71.10,88.25,41.38,125372
1.80,-9.81,-0.64,0.04,-0.13,-0.14,-71.10,88.42,42.02,125406
1.22,-9.71,-0.61,0.05,-0.21,-0.18,-71.28,88.35,42.82,125440
1.60,-9.78,-0.62,0.05,-0.20,-0.16,-71.56,87.87,42.63,125474
1.68,-9.83,-0.46,0.04,-0.14,-0.15,-71.41,87.77,42.60,125508
2.18,-9.69,-0.10,0.08,-0.14,-0.07,-71.41,88.64,43.34,125542
1.93,-9.71,-0.54,0.13,-0.24,-0.02,-70.86,89.58,42.59,125577
1.73,-9.52,-0.60,0.18,-0.25,0.06,-70.21,90.40,42.94,125611
1.70,-9.32,-0.66,0.21,-0.23,0.13,-68.99,91.57,42.58,125645
1.47,-9.28,-0.64,0.20,-0.36,0.12,-67.58,92.55,42.74,125679
2.44,-9.07,-0.93,0.16,-0.34,0.08,-66.50,93.32,42.91,125713
2.34,-9.21,-1.19,0.04,-0.15,-0.05,-66.35,94.39,42.56,125748
1.44,-10.46,-0.76,-0.10,-0.31,-0.23,-66.46,95.18,43.91,125782
4.91,-8.96,-1.38,-0.12,-0.41,-0.21,-65.80,94.14,44.68,125816
1.43,-9.53,-1.24,-0.07,0.41,-0.13,-67.32,94.36,44.21,125850
3.19,-9.17,-1.14,-0.12,-0.13,-0.22,-67.64,93.47,44.83,125884
1.89,-9.38,-1.74,-0.10,0.11,-0.24,-68.50,93.13,44.62,125918
1.66,-9.68,-1.62,-0.08,0.24,-0.22,-69.63,91.96,44.20,125953
1.18,-9.60,-1.56,-0.00,0.25,-0.24,-71.09,91.64,44.59,125987
1.72,-10.00,-0.49,0.02,-0.05,-0.26,-71.88,90.87,44.69,126021
1.81,-10.04,-0.33,0.15,-0.34,-0.19,-71.67,90.76,45.09,126055
2.01,-9.66,-0.64,0.14,-0.41,-0.16,-71.62,90.47,45.60,126089
2.21,-9.55,-0.89,0.09,-0.06,-0.11,-71.97,90.81,45.07,126124
2.36,-9.46,-1.05,0.10,-0.05,-0.11,-72.00,91.39,45.09,126158
2.41,-9.67,-1.12,0.09,0.07,-0.10,-72.03,91.73,44.18,126192
2.04,-9.73,-0.93,0.07,0.13,-0.12,-72.57,91.93,43.99,126226
1.45,-9.41,-0.84,0.06,0.06,-0.19,-72.96,91.63,43.69,126260
1.34,-9.80,-0.49,0.06,-0.10,-0.24,-73.69,91.46,43.64,126294
1.37,-10.00,-0.30,0.09,-0.19,-0.20,-73.97,92.09,44.45,126329
1.79,-9.72,0.41,0.17,-0.41,-0.15,-73.59,92.74,44.08,126363
1.44,-9.92,0.67,0.38,-0.77,-0.09,-72.17,94.15,44.24,126397
2.26,-9.66,-1.45,0.42,-0.88,0.03,-70.37,95.62,45.43,126431
2.29,-9.41,-1.57,0.38,-0.45,0.16,-68.34,97.66,43.98,126465
1.70,-9.26,-1.05,0.36,-0.52,0.13,-66.91,100.29,43.47,126500
3.34,-9.21,-1.00,0.34,-0.63,0.06,-65.36,102.12,43.47,126534
2.28,-9.54,-1.06,0.28,-0.36,0.04,-63.87,103.36,42.96,126568
2.49,-9.42,-0.76,0.21,-0.32,-0.04,-62.77,105.39,42.15,126602
2.10,-9.18,-1.00,0.19,-0.31,-0.10,-62.53,106.75,41.11,126636
2.07,-9.61,-1.03,0.19,-0.38,-0.08,-61.66,107.63,40.87,126670
2.49,-9.59,-0.69,0.16,-0.30,-0.07,-60.99,108.89,40.47,126705
2.52,-9.38,-0.48,0.15,-0.32,-0.08,-60.36,109.53,40.00,126739
2.43,-9.49,-0.41,0.16,-0.44,-0.08,-59.82,110.63,41.19,126773
2.51,-9.48,-0.72,0.14,-0.38,-0.05,-58.90,110.76,40.59,126807
2.06,-9.25,-0.79,0.08,-0.33,-0.08,-57.97,111.62,41.16,126841
2.06,-9.35,-1.31,0.04,-0.30,-0.11,-57.79,112.69,41.54,126875
1.85,-9.76,-0.53,0.08,-0.05,-0.11,-57.88,113.26,40.78,126910
0.96,-8.89,-0.41,0.12,0.28,-0.16,-59.03,113.99,39.83,126944
2.51,-9.93,-0.23,0.08,-0.10,-0.10,-59.18,114.51,39.48,126978
2.36,-9.64,0.03,0.15,-0.07,-0.06,-58.77,115.74,39.02,127012
1.49,-9.44,-0.29,0.18,-0.33,-0.09,-58.20,116.95,38.76,127046
2.61,-9.51,-1.21,0.10,-0.69,-0.14,-57.60,117.44,39.65,127081
3.31,-9.74,-0.74,0.08,-0.42,-0.12,-56.77,118.37,39.13,127115
3.57,-9.20,0.08,-0.01,-0.35,-0.14,-55.82,119.04,39.77,127149
2.76,-9.33,-0.36,-0.13,-0.47,-0.20,-55.48,119.01,41.49,127183
2.80,-9.10,-1.29,-0.18,-0.59,-0.27,-55.28,118.39,42.63,127217
2.30,-9.17,-2.18,-0.17,-0.37,-0.31,-55.82,118.15,44.01,127251
2.65,-9.17,-1.97,-0.16,-0.03,-0.27,-56.27,117.96,44.08,127286
2.30,-9.35,-1.23,-0.13,0.04,-0.25,-57.83,117.61,45.29,127320
2.78,-9.40,-0.64,-0.10,0.10,-0.20,-58.45,117.70,45.09,127354
2.40,-9.64,-0.58,-0.04,0.07,-0.20,-59.40,117.25,45.43,127388
2.57,-9.90,-0.70,0.02,0.02,-0.16,-59.70,116.46,45.69,127422
3.12,-9.41,-1.07,0.03,-0.02,-0.12,-60.03,116.72,45.56,127457
2.54,-9.38,-1.09,0.06,0.06,-0.08,-59.94,117.20,44.83,127491
2.88,-9.21,-0.98,0.02,0.01,-0.14,-60.44,116.54,44.50,127525
2.84,-9.34,-0.96,0.03,0.03,-0.12,-60.83,116.82,43.39,127559
2.75,-9.21,-1.15,0.02,0.08,-0.09,-61.14,116.65,43.31,127593
2.46,-9.17,-1.29,0.03,0.15,-0.10,-61.33,116.56,42.88,127627
2.85,-9.22,-1.33,0.04,0.05,-0.07,-61.39,116.02,43.16,127662
2.34,-9.13,-1.30,0.04,0.09,-0.10,-62.25,115.87,42.65,127696
2.54,-9.53,-1.21,0.05,0.09,-0.11,-62.45,116.18,42.55,127730
2.23,-9.45,-0.81,0.05,0.14,-0.11,-62.86,116.11,42.08,127764
2.42,-9.59,-0.57,0.08,0.03,-0.04,-63.49,115.97,41.30,127798
2.61,-9.31,-0.68,0.08,-0.09,-0.07,-63.12,116.46,40.85,127833
2.74,-9.39,-0.78,0.09,-0.02,-0.03,-63.07,117.09,40.85,127867
2.63,-9.25,-0.94,0.09,-0.07,-0.04,-62.89,117.03,40.50,127901
2.97,-9.34,-1.10,0.07,-0.11,-0.06,-62.44,117.33,40.02,127935
2.64,-9.21,-1.12,0.07,-0.04,-0.08,-62.16,117.71,39.80,127969
2.84,-9.32,-0.84,0.08,-0.07,-0.05,-62.74,117.14,40.00,128003
2.57,-9.54,-0.87,0.11,-0.07,-0.03,-62.34,118.04,39.77,128038
2.63,-9.38,-0.84,0.11,-0.14,-0.04,-62.19,117.64,39.07,128072
2.33,-9.37,-0.79,0.13,-0.12,-0.01,-61.55,118.40,39.17,128106
