ax,ay,az,gx,gy,gz,mx,my,mz,timestamp
0.78,-9.96,0.83,0.20,0.01,-0.08,-20.11,131.01,-18.77,661404
1.42,-9.41,0.83,0.36,0.07,-0.07,-20.04,131.00,-19.64,661438
1.01,-10.03,1.31,0.31,0.22,0.00,-20.36,131.70,-22.20,661472
1.42,-8.89,1.97,-0.33,-0.03,-0.09,-20.74,130.58,-20.71,661506
0.83,-9.38,1.74,-1.18,-0.18,-0.08,-19.67,130.01,-15.39,661541
-0.35,-10.51,0.66,-0.40,-0.36,-0.23,-19.50,129.87,-7.89,661575
0.60,-11.19,0.46,-0.09,-0.25,-0.14,-20.40,130.08,-10.87,661609
1.06,-9.20,0.34,0.01,0.03,-0.08,-20.64,130.53,-10.20,661643
0.95,-9.75,0.47,-0.01,-0.00,-0.05,-20.51,129.93,-10.38,661677
1.40,-9.78,0.58,0.01,-0.05,-0.05,-20.75,130.08,-11.17,661711
1.26,-9.74,0.45,0.00,-0.01,-0.05,-20.72,129.89,-10.68,661746
1.20,-9.74,0.51,-0.00,-0.02,-0.05,-20.61,129.74,-10.08,661780
1.29,-9.81,0.54,-0.01,0.01,-0.04,-20.74,129.79,-10.74,661814
1.28,-9.78,0.47,-0.02,0.04,-0.03,-20.71,130.27,-10.22,661848
1.44,-9.74,0.50,-0.02,0.05,-0.02,-20.87,130.23,-10.16,661882
1.12,-9.77,0.53,-0.02,0.06,-0.03,-20.43,129.90,-10.55,661916
1.23,-9.74,0.48,-0.04,0.07,-0.03,-20.46,129.80,-9.79,661951
0.98,-9.83,0.58,-0.04,0.08,-0.04,-20.87,130.01,-9.59,661985
0.92,-9.87,0.66,-0.06,0.04,-0.07,-20.86,129.76,-8.90,662019
0.80,-9.82,0.66,-0.07,0.05,-0.07,-20.99,129.57,-8.90,662053
1.02,-9.84,0.59,-0.09,0.04,-0.07,-22.03,129.70,-8.51,662087
1.04,-9.69,0.27,-0.08,-0.00,-0.07,-21.41,130.02,-8.40,662122
1.42,-9.71,0.11,-0.08,0.00,-0.07,-21.72,129.76,-7.72,662156
1.19,-9.84,0.29,-0.08,0.05,-0.08,-22.05,130.34,-7.40,662190
0.84,-9.85,0.35,-0.05,-0.04,-0.08,-21.50,130.12,-7.79,662224
1.51,-9.65,0.22,-0.00,0.31,0.05,-21.16,130.42,-6.78,662258
1.50,-9.89,0.53,0.04,0.21,0.25,-20.27,130.81,-6.91,662292
2.12,-9.74,0.78,0.07,0.12,0.36,-18.23,131.28,-7.51,662327
2.79,-9.72,0.77,0.07,0.08,0.36,-16.41,131.25,-8.48,662361
2.27,-8.82,-0.53,-0.05,0.35,0.24,-15.30,131.51,-8.32,662395
0.36,-8.89,-1.45,-0.26,0.49,0.04,-15.27,130.72,-6.81,662429
0.41,-9.56,0.00,-0.30,0.62,-0.14,-16.34,130.09,-4.44,662463
-1.52,-10.93,1.19,-0.37,0.55,-0.19,-18.23,130.01,-2.72,662498
0.36,-9.86,0.88,-0.26,0.35,-0.23,-19.29,129.44,-1.36,662532
0.73,-10.09,-0.28,-0.32,0.28,-0.24,-20.58,129.38,-0.01,662566
2.07,-8.35,-3.20,-0.53,0.58,-0.37,-22.01,129.03,0.89,662600
8.04,-8.02,-3.48,-1.11,2.15,-0.31,-25.81,127.42,5.39,662634
3.69,-12.89,0.25,-1.92,4.92,-0.20,-31.25,124.99,8.37,662668
-6.37,-12.17,-2.60,-1.07,-0.49,-2.64,-40.43,120.37,12.99,662703
11.69,-11.34,-3.85,-1.38,1.19,-2.96,-54.52,112.54,17.28,662737
-7.26,-15.46,0.31,-1.38,0.69,-1.77,-61.82,106.40,18.85,662771
-2.62,1.67,8.88,0.37,-0.86,0.84,-60.16,105.96,20.84,662805
-6.47,-9.48,3.93,2.20,-0.81,4.74,-47.60,117.61,15.33,662839
-11.05,-30.00,-0.92,3.06,-1.76,5.16,-20.55,128.22,6.04,662874
-4.69,-10.51,-4.04,0.08,0.17,2.12,1.64,130.77,-2.44,662908
3.33,-6.10,-0.27,-1.08,0.11,-2.40,-2.19,131.61,2.76,662942
6.18,-21.33,-2.08,-2.99,-2.21,-5.12,-19.57,130.47,16.85,662976
13.93,-3.72,2.46,-1.16,-1.77,-3.79,-37.78,124.80,23.11,663010
-3.81,3.65,-1.07,-0.08,0.82,0.02,-44.55,122.95,23.60,663044
-11.09,-35.39,-6.43,0.46,-1.07,2.44,-33.37,129.04,23.91,663079
15.17,5.67,1.16,0.78,-0.25,0.99,-27.02,130.17,21.38,663113
-6.49,-9.81,-2.85,0.13,0.38,0.70,-22.96,131.28,20.80,663147
5.66,-6.83,-4.14,-0.03,-0.67,-0.33,-21.38,131.86,21.48,663181
0.52,-8.86,-3.18,-0.42,0.37,-0.22,-22.79,132.01,22.93,663215
-0.93,-10.72,-0.57,-0.37,0.35,-0.07,-23.79,132.02,24.70,663250
-0.52,-11.53,0.96,-0.21,-0.01,0.00,-22.73,131.91,25.42,663284
0.26,-9.69,-1.31,-0.06,-0.47,-0.09,-21.57,132.64,26.85,663318
-1.10,-10.29,-2.40,-0.03,-0.24,0.03,-19.54,133.89,26.70,663352
-1.68,-9.67,-2.43,0.06,-0.30,0.07,-17.14,134.79,26.44,663386
-0.58,-9.31,-1.36,0.15,-0.58,0.05,-13.96,136.12,25.17,663420
-1.24,-10.17,-2.39,0.26,-0.90,0.04,-8.97,137.85,24.01,663455
-1.67,-10.88,-1.61,0.18,-0.65,-0.16,-4.98,138.61,22.79,663489
-5.42,-11.42,-3.06,0.52,-1.90,-0.96,-3.17,139.68,18.30,663523
4.29,-9.45,-5.18,0.14,-1.35,-1.66,-3.84,140.28,13.56,663557
2.79,-16.67,5.18,0.70,-0.83,-1.76,-7.12,140.59,9.82,663591
14.82,-3.19,-4.45,1.64,-5.06,-3.58,-16.03,139.07,-2.25,663625
3.97,-8.86,-9.88,1.52,-2.22,-2.50,-22.92,136.69,-10.67,663660
-1.60,-4.96,-8.21,1.50,-2.86,-1.87,-30.58,133.73,-20.51,663694
6.09,-4.24,-4.65,1.66,-3.10,-1.28,-35.25,130.94,-26.40,663728
2.89,-5.64,-3.36,1.59,-1.84,-0.41,-37.02,129.20,-32.40,663762
1.98,-7.10,-2.35,1.67,-2.24,0.15,-36.95,128.15,-39.56,663796
4.00,-8.93,-1.56,1.58,-2.12,0.52,-36.12,127.19,-46.74,663831
3.09,-9.14,-1.27,1.33,-1.49,0.79,-33.16,126.67,-53.35,663865
1.32,-14.15,-4.69,0.60,-1.28,0.88,-29.06,126.03,-56.85,663899
7.20,-8.92,-1.42,-0.40,0.84,0.21,-25.68,125.46,-56.59,663933
2.71,-8.26,-0.65,-0.63,1.61,0.02,-22.46,125.27,-55.03,663967
2.06,-8.25,-1.07,-0.16,-0.08,-0.58,-22.81,124.51,-55.06,664001
2.47,-6.91,-1.96,-0.03,-0.51,-0.66,-24.99,123.52,-55.33,664036
1.15,-8.76,-1.12,0.10,-0.44,-0.07,-25.23,122.90,-56.20,664070
3.48,-7.07,0.05,0.72,-0.90,0.09,-25.50,122.20,-58.65,664104
-6.64,-19.01,-3.56,1.14,-1.93,0.43,-25.62,120.71,-63.45,664138
8.68,-3.73,3.01,0.80,-2.70,-1.15,-32.77,117.30,-63.88,664172
-4.46,-13.11,-4.63,0.35,-1.98,-0.63,-37.99,114.57,-65.33,664207
9.68,-9.74,-1.86,-0.17,-0.89,-1.05,-43.07,112.19,-63.31,664241
9.94,-6.74,-3.31,-0.68,0.07,-1.02,-46.00,110.58,-62.83,664275
0.26,-11.00,-0.72,-0.82,1.84,-0.58,-46.43,110.80,-61.90,664309
-0.64,-10.09,-1.89,-0.36,0.56,-1.04,-47.73,109.60,-61.53,664343
2.93,-8.84,-2.29,-0.24,0.01,-1.02,-51.23,108.24,-60.46,664377
2.18,-9.45,0.34,-0.05,0.36,-0.98,-54.60,106.18,-60.93,664412
2.40,-9.55,0.15,0.01,0.15,-1.09,-56.68,104.28,-61.41,664446
2.17,-9.15,0.39,0.03,-0.98,-1.18,-61.41,100.47,-59.65,664480
3.14,-11.33,-0.47,0.27,-1.52,-1.15,-65.23,97.19,-59.03,664514
3.29,-8.91,-3.30,0.96,-1.71,-1.13,-71.09,93.17,-57.15,664548
3.91,-10.28,-5.97,2.13,-2.26,-0.78,-75.94,86.85,-57.21,664583
4.75,-7.88,-6.27,3.10,-3.20,-0.89,-81.01,81.28,-56.56,664617
1.06,-10.01,-8.27,4.02,-4.51,-1.03,-88.56,73.21,-52.21,664651
0.20,-9.58,-14.37,4.27,-5.02,-0.87,-95.21,67.93,-45.88,664685
1.50,-6.92,-13.40,4.57,-5.12,-0.72,-99.93,64.67,-39.08,664719
10.40,-4.73,-9.58,5.43,-5.14,-1.19,-103.70,62.69,-31.10,664753
11.46,-8.35,-10.15,6.15,-6.21,-1.55,-106.74,62.50,-21.73,664788
-16.87,-22.40,-18.38,7.53,-8.39,-1.09,-108.94,63.77,-8.35,664822
1.73,-15.72,-26.07,10.07,-7.89,-2.40,-110.63,64.48,-2.82,664856
19.75,-22.06,-23.83,9.77,-8.04,-1.59,-110.27,68.82,-1.75,664890
3.42,-18.32,-21.70,8.32,-9.11,-3.66,-110.36,65.36,9.60,664924
-9.32,2.35,-20.55,5.82,-6.82,-2.62,-108.92,60.90,20.74,664958
1.72,-2.70,-24.44,5.20,-7.37,-1.39,-100.25,65.29,37.69,664993
6.31,-8.41,-21.56,5.24,-5.68,-1.75,-90.02,72.92,46.80,665027
-6.97,0.81,-21.35,5.32,-5.60,-1.86,-78.22,82.84,49.23,665061
-0.69,-0.19,-22.30,6.07,-7.07,-2.30,-59.85,95.94,45.56,665095
-3.27,-1.97,-19.75,6.41,-6.36,-2.50,-48.33,104.02,31.70,665129
1.05,1.66,-17.67,6.37,-6.64,-2.51,-44.14,107.64,8.65,665164
-0.93,0.21,-18.31,6.58,-6.49,-2.64,-46.89,105.31,-9.50,665198
-3.29,-2.73,-22.48,7.13,-7.73,-2.92,-54.56,98.58,-23.56,665232
-0.42,-2.72,-21.91,6.88,-8.31,-3.23,-68.28,86.88,-29.45,665266
-5.02,-6.49,-20.65,6.94,-8.31,-3.20,-77.70,77.54,-27.74,665300
-10.58,-5.45,-29.01,7.60,-10.48,-3.85,-85.79,69.72,-17.86,665334
-6.69,-4.53,-30.62,7.46,-10.51,-3.71,-90.27,65.17,-2.15,665369
-5.75,-6.58,-24.51,7.13,-9.96,-3.17,-89.17,65.57,9.16,665403
-6.60,-12.00,-26.28,7.12,-10.13,-2.85,-84.16,70.11,20.15,665437
-7.11,-9.80,-29.60,6.99,-10.36,-2.85,-78.15,76.22,27.04,665471
-5.79,-10.64,-28.43,6.05,-8.68,-2.06,-71.79,83.10,29.76,665505
-6.12,-9.63,-26.59,5.87,-8.35,-1.86,-63.56,92.37,31.28,665540
-5.37,-9.71,-24.45,5.92,-8.62,-1.62,-54.85,100.64,30.74,665574
-6.76,-11.28,-26.28,5.97,-8.64,-1.56,-40.56,111.77,22.79,665608
-9.68,-8.11,-25.10,6.15,-9.00,-1.73,-28.52,117.93,6.90,665642
-4.71,-11.61,-29.85,6.19,-9.31,-1.79,-21.63,118.88,-16.50,665676
-0.22,-7.72,-26.45,5.67,-8.93,-1.66,-24.41,110.25,-42.65,665710
-5.36,-10.41,-27.28,5.46,-8.32,-1.25,-33.43,98.96,-59.25,665745
-2.23,-6.60,-25.09,5.35,-8.61,-1.27,-51.23,82.74,-67.01,665779
-0.57,-6.79,-24.25,4.97,-8.04,-1.03,-64.81,71.92,-64.21,665813
-2.86,-10.41,-24.75,5.14,-8.13,-1.26,-76.78,63.56,-55.90,665847
-0.40,-5.54,-26.72,5.56,-9.28,-1.89,-88.99,56.33,-37.31,665881
0.44,-5.10,-23.65,5.44,-9.18,-2.00,-93.96,54.12,-20.24,665916
2.95,-8.28,-20.84,5.22,-8.74,-2.26,-94.52,53.61,-0.95,665950
-2.11,-7.85,-19.53,5.15,-8.56,-2.45,-92.17,53.99,13.75,665984
-0.81,-7.11,-19.34,5.19,-8.49,-2.51,-87.09,55.69,26.66,666018
-0.48,-6.84,-18.41,5.26,-8.44,-2.56,-78.50,60.03,39.54,666052
-1.18,-7.94,-18.72,5.29,-8.39,-2.55,-68.47,66.16,48.44,666086
-0.29,-6.57,-18.73,4.96,-7.92,-2.47,-58.17,73.24,53.00,666121
-1.39,-5.29,-20.41,4.80,-7.36,-2.23,-43.77,82.36,54.22,666155
-1.90,-2.83,-20.91,4.94,-7.65,-2.09,-30.59,91.42,49.85,666189
3.29,-5.61,-15.82,4.46,-8.35,-2.04,-14.03,100.89,37.84,666223
5.74,-4.93,-9.88,4.61,-6.79,-2.35,-6.26,106.72,21.94,666257
0.88,-6.50,-12.54,4.73,-6.99,-2.34,-4.72,110.36,2.89,666291
0.50,-8.08,-13.87,4.81,-7.56,-2.75,-10.96,109.65,-21.76,666326
0.57,-9.04,-13.34,5.01,-7.60,-3.20,-23.62,104.28,-39.08,666360
-1.80,-7.41,-13.92,5.22,-7.54,-3.11,-41.01,91.64,-52.31,666394
-1.46,-9.02,-16.24,5.43,-8.05,-2.89,-61.69,80.97,-55.67,666428
-4.89,-9.35,-15.87,5.43,-7.74,-2.66,-76.67,69.64,-49.74,666462
-4.37,-8.46,-15.37,5.43,-7.94,-2.51,-89.29,58.55,-35.55,666497
-2.32,-9.46,-16.04,5.31,-8.16,-2.28,-95.05,53.48,-20.46,666531
-2.58,-8.32,-16.46,5.56,-7.96,-2.33,-95.97,51.23,-2.73,666565
-2.73,-8.64,-14.17,5.46,-7.72,-2.22,-94.07,51.46,8.49,666599
-4.86,-14.82,-16.10,5.72,-8.42,-2.30,-89.65,55.19,21.05,666633
-5.58,-10.61,-19.25,5.71,-8.57,-2.74,-82.49,59.98,33.29,666667
-9.61,-11.23,-23.07,5.51,-8.10,-2.61,-75.05,65.40,40.37,666702
-6.12,-8.27,-22.47,5.20,-7.84,-2.26,-66.81,71.97,46.42,666736
-7.05,-8.48,-22.21,5.12,-7.39,-1.86,-55.25,82.02,49.27,666770
-2.87,-7.17,-19.23,5.29,-7.86,-1.64,-42.36,91.19,47.85,666804
-0.41,-5.28,-17.45,4.91,-8.23,-1.46,-24.54,102.15,40.54,666838
2.47,-7.37,-16.01,4.16,-6.50,-1.06,-10.99,109.49,27.24,666873
-0.69,-8.23,-14.87,4.02,-6.35,-1.34,-2.00,113.20,10.61,666907
-2.28,-7.64,-15.53,4.38,-6.84,-1.39,1.81,113.74,-15.24,666941
-5.30,-10.46,-16.17,4.66,-7.83,-1.82,-2.67,109.02,-37.46,666975
-2.61,-10.99,-17.90,4.90,-8.29,-2.44,-18.43,98.60,-59.25,667009
-5.25,-7.95,-20.57,5.06,-8.46,-2.67,-37.61,84.84,-70.24,667043
-5.29,-8.87,-20.58,5.38,-8.81,-2.66,-58.02,69.76,-70.97,667078
-5.06,-10.40,-18.56,5.58,-8.89,-2.69,-81.53,53.24,-58.54,667112
-5.13,-11.96,-20.61,5.45,-8.79,-2.64,-94.53,42.14,-40.19,667146
0.17,-6.63,-21.24,4.58,-7.49,-2.50,-101.07,34.93,-17.16,667180
-3.78,-8.34,-19.11,4.27,-6.69,-2.21,-101.18,33.59,-0.34,667214
-2.49,-6.00,-16.53,4.42,-7.00,-2.26,-98.04,35.03,15.61,667249
-1.40,-6.37,-17.34,4.57,-7.23,-2.23,-90.79,38.79,33.13,667283
-0.55,-5.39,-16.65,4.27,-7.59,-2.23,-81.54,43.19,46.46,667317
-1.43,-7.04,-17.32,4.15,-7.35,-2.31,-70.40,49.08,59.70,667351
-0.73,-4.91,-14.97,4.08,-7.12,-2.28,-55.86,57.72,67.19,667385
0.87,-3.88,-14.12,3.98,-6.98,-2.30,-42.74,65.54,70.91,667419
-0.33,-7.41,-12.39,4.45,-6.64,-2.58,-28.82,78.37,68.50,667454
-0.51,-10.94,-13.51,4.61,-7.08,-2.90,-17.17,89.39,63.07,667488
-1.69,-8.22,-14.46,4.90,-7.33,-3.37,-8.20,99.49,46.49,667522
-4.90,-10.29,-13.09,5.31,-7.73,-3.21,-2.76,110.22,27.77,667556
-5.71,-11.10,-17.29,5.85,-8.96,-3.45,-3.05,115.23,2.15,667590
-5.09,-10.58,-18.77,5.82,-8.59,-3.38,-12.89,113.18,-29.28,667625
-4.29,-6.22,-18.44,5.09,-7.77,-2.89,-27.11,105.54,-47.02,667659
-2.93,-7.96,-16.13,4.76,-6.90,-2.34,-41.65,95.69,-58.01,667693
-1.45,-6.90,-14.86,4.94,-7.16,-2.42,-60.16,80.93,-61.77,667727
-2.31,-7.28,-14.90,5.13,-7.48,-2.44,-75.24,68.27,-57.29,667761
-2.16,-8.78,-15.47,5.05,-7.45,-2.39,-90.53,56.08,-43.41,667795
0.17,-5.83,-16.42,4.67,-7.41,-2.53,-97.75,48.10,-28.40,667830
-0.47,-5.44,-15.59,4.27,-7.37,-2.50,-100.89,43.39,-9.98,667864
-1.62,-5.28,-15.10,4.58,-7.29,-2.67,-99.85,41.77,9.54,667898
-0.91,-8.87,-16.49,4.92,-8.14,-2.94,-95.34,42.60,26.44,667932
0.26,-5.59,-13.59,4.95,-8.82,-3.31,-86.82,48.55,47.15,667966
0.57,-7.46,-14.17,4.56,-8.34,-3.07,-72.52,50.34,59.65,668000
-2.66,-6.45,-11.72,4.39,-6.92,-2.64,-61.08,57.69,66.25,668035
-3.54,-9.10,-12.88,3.95,-6.62,-2.35,-47.19,68.90,70.93,668069
0.85,-5.14,-12.94,4.09,-6.29,-2.48,-36.66,78.68,70.52,668103
-1.21,-9.06,-12.74,4.42,-6.53,-2.60,-27.67,88.95,64.85,668137
0.00,-6.87,-14.81,4.77,-7.68,-3.34,-16.52,100.34,52.84,668171
-3.68,-6.84,-16.25,5.26,-8.65,-4.16,-12.36,109.35,37.94,668206
-1.80,-3.58,-13.95,5.64,-9.40,-4.49,-13.20,116.33,13.93,668240
-0.69,-8.77,-12.67,5.64,-9.12,-4.37,-22.19,117.66,-6.12,668274
-0.64,-4.67,-10.21,5.19,-8.41,-3.84,-35.46,113.43,-22.92,668308
-2.21,-10.27,-10.23,4.55,-7.85,-3.20,-52.03,104.95,-31.53,668342
-0.98,-7.72,-11.00,4.40,-6.89,-3.24,-65.39,95.45,-34.49,668376
-4.25,-8.25,-13.38,4.56,-6.72,-2.77,-78.75,83.94,-30.82,668411
-1.62,-5.18,-12.15,4.58,-6.92,-2.61,-86.52,75.86,-24.07,668445
-0.67,-9.58,-12.67,4.32,-6.79,-2.48,-91.67,70.13,-14.34,668479
-0.78,-7.21,-12.59,4.45,-6.65,-2.53,-94.01,65.26,-1.62,668513
-1.28,-6.55,-11.96,4.55,-6.91,-2.72,-92.97,63.12,10.45,668547
-0.78,-8.87,-12.21,4.66,-7.38,-3.03,-90.18,62.95,24.47,668582
-0.95,-8.39,-13.30,4.71,-7.69,-3.42,-85.22,63.78,33.75,668616
-1.46,-6.30,-12.89,4.65,-7.90,-3.50,-79.35,65.78,44.36,668650
0.85,-6.67,-11.72,4.42,-7.41,-3.28,-70.42,70.01,52.78,668684
1.61,-9.28,-12.65,4.29,-7.01,-3.13,-63.68,74.93,57.04,668718
-0.38,-6.51,-11.19,4.19,-6.85,-2.96,-56.68,80.09,59.15,668752
-0.93,-7.57,-10.36,4.20,-7.20,-2.98,-46.14,87.42,59.81,668787
-1.65,-7.48,-10.43,4.32,-7.13,-2.86,-37.47,94.77,57.00,668821
-1.21,-9.73,-11.80,4.31,-7.22,-2.65,-26.48,103.96,48.87,668855
1.21,-5.46,-9.64,4.08,-6.97,-2.22,-19.29,110.52,38.51,668889
0.72,-8.06,-11.38,3.82,-5.99,-2.06,-14.53,115.42,24.57,668923
1.22,-8.72,-12.75,4.05,-6.44,-2.47,-14.81,119.37,5.51,668958
2.25,-6.52,-11.17,4.11,-6.76,-2.91,-21.28,118.46,-11.03,668992
-0.47,-9.09,-10.91,4.33,-7.37,-3.55,-36.06,113.14,-26.47,669026
-0.88,-6.21,-10.41,4.77,-8.24,-4.09,-52.92,104.14,-33.13,669060
-1.65,-5.97,-8.69,4.95,-8.84,-4.09,-70.53,92.58,-31.95,669094
1.32,-8.51,-8.94,4.99,-8.20,-4.04,-86.73,78.37,-22.60,669128
-0.96,-8.21,-10.74,4.45,-7.20,-3.36,-95.38,68.06,-11.37,669163
-1.84,-8.41,-10.39,4.10,-7.05,-3.00,-97.90,60.76,5.28,669197
0.56,-7.93,-9.54,3.79,-6.45,-3.01,-96.46,57.44,18.77,669231
0.74,-5.34,-10.69,4.08,-6.43,-3.11,-93.26,55.36,30.01,669265
0.91,-6.46,-9.63,4.12,-7.27,-3.31,-85.79,55.38,45.64,669299
1.49,-6.39,-8.94,4.01,-7.85,-3.78,-76.41,57.40,57.47,669333
0.77,-2.90,-11.52,4.27,-7.90,-4.06,-65.39,60.38,66.06,669368
-0.97,-6.90,-6.91,4.27,-8.48,-3.90,-49.66,67.19,73.62,669402
1.44,-7.81,-6.42,4.01,-8.14,-4.13,-35.81,74.09,75.84,669436
-1.13,-8.88,-6.70,3.97,-7.84,-4.07,-22.42,85.19,73.18,669470
-0.64,-9.63,-6.80,3.82,-7.27,-3.85,-14.18,94.07,66.79,669504
-1.80,-9.89,-7.21,3.41,-5.89,-3.07,-8.43,101.86,57.61,669539
-3.23,-10.91,-6.10,3.73,-5.47,-2.70,-4.82,111.11,42.28,669573
-2.89,-14.04,-4.42,4.43,-5.57,-2.77,-4.44,118.40,23.57,669607
-5.87,-13.04,-4.83,4.64,-6.20,-2.75,-7.76,121.85,-1.87,669641
-6.57,-14.45,-11.72,4.94,-6.88,-2.93,-16.47,120.42,-24.14,669675
-11.67,-10.77,-20.99,5.02,-6.97,-2.32,-28.72,113.12,-42.69,669709
-4.39,-9.13,-19.46,4.83,-6.99,-2.48,-46.24,99.97,-56.56,669744
0.96,-5.14,-10.02,4.20,-5.73,-1.98,-59.57,89.02,-59.13,669778
0.03,-11.54,-9.65,4.17,-5.57,-1.49,-71.73,78.43,-57.80,669812
3.58,-8.16,-9.43,4.11,-5.75,-1.82,-81.32,70.58,-52.43,669846
1.80,-7.34,-10.40,3.26,-4.43,-1.42,-88.23,63.86,-45.78,669880
0.51,-8.03,-10.23,3.12,-4.34,-1.49,-93.26,59.28,-37.65,669915
2.88,-7.38,-9.50,3.19,-4.52,-1.41,-96.42,57.37,-30.18,669949
1.92,-9.14,-7.96,3.11,-4.28,-1.01,-98.17,57.06,-20.34,669983
5.57,-8.38,-7.69,3.03,-4.32,-1.05,-99.18,58.40,-12.99,670017
2.12,-5.76,-10.51,2.70,-4.20,-1.19,-98.92,59.91,-6.94,670051
2.38,-7.95,-9.85,2.51,-5.07,-1.02,-97.43,62.99,3.57,670085
2.20,-8.29,-9.29,2.58,-4.44,-1.11,-94.71,66.22,10.06,670120
5.23,-5.88,-8.42,2.75,-3.86,-0.80,-91.17,70.89,13.31,670154
3.29,-8.10,-9.21,2.03,-4.29,-0.03,-85.17,78.08,16.56,670188
8.26,-8.74,-7.26,2.19,-2.97,0.11,-80.04,84.61,14.79,670222
5.38,-8.26,-6.26,2.10,-2.79,-0.04,-73.62,89.93,12.25,670256
7.84,-6.17,-6.81,2.43,-2.90,-0.46,-70.48,91.87,6.59,670291
4.59,-6.00,-5.78,3.03,-3.99,-1.01,-68.87,93.42,1.55,670325
2.16,-9.01,-11.76,3.22,-4.97,-1.66,-69.41,91.86,-0.72,670359
3.40,-5.22,-12.89,2.89,-4.70,-2.05,-73.11,89.32,-0.37,670393
3.91,-5.52,-7.12,2.34,-3.63,-1.61,-76.47,87.15,1.24,670427
3.61,-6.07,-5.16,2.16,-2.89,-0.87,-78.05,88.21,2.29,670461
0.00,-11.10,-7.84,1.95,-3.08,-0.36,-77.54,90.51,3.58,670496
2.57,-8.55,-5.11,2.06,-2.92,-0.65,-76.82,94.48,6.11,670530
3.34,-6.84,-4.55,1.97,-2.81,-0.55,-76.56,97.81,7.56,670564
1.25,-10.10,-4.26,2.04,-3.12,-0.40,-74.32,103.05,9.81,670598
3.86,-8.44,-3.40,2.43,-3.80,-0.79,-72.14,107.99,10.63,670632
2.01,-9.05,-5.79,2.22,-3.34,-0.66,-69.80,112.35,10.10,670666
-2.58,-8.74,-4.83,1.82,-2.70,-0.28,-65.68,118.77,8.71,670701
1.82,-9.93,-2.84,2.09,-2.92,-0.15,-60.38,124.51,5.42,670735
1.84,-8.47,-3.57,2.02,-2.69,0.20,-51.86,130.69,-0.72,670769
2.50,-8.12,-5.57,1.56,-2.11,0.27,-43.86,135.41,-6.91,670803
1.75,-10.95,-4.19,1.49,-2.18,0.05,-36.60,137.75,-13.97,670837
3.94,-10.44,-4.55,1.51,-2.32,-0.29,-30.52,138.29,-22.93,670872
2.41,-9.10,-4.77,1.15,-2.13,-0.81,-28.72,136.55,-30.17,670906
4.94,-9.95,-6.43,1.09,-2.36,-1.39,-28.49,134.03,-37.53,670940
2.44,-4.88,-6.15,1.45,-2.68,-2.04,-34.81,128.75,-44.56,670974
0.38,-5.44,-9.50,1.72,-2.64,-1.69,-42.12,123.74,-50.85,671008
-1.55,-12.18,-11.68,2.63,-3.24,-1.28,-49.09,116.90,-60.10,671042
-2.70,-14.03,-14.79,5.05,-5.73,-1.83,-59.37,106.99,-70.27,671077
3.36,-12.57,-19.28,6.94,-8.16,-2.67,-77.14,90.40,-74.77,671111
4.44,-7.42,-18.30,7.20,-8.39,-3.22,-101.04,66.00,-66.37,671145
-6.33,-4.41,-22.28,7.36,-8.73,-3.44,-117.47,48.48,-47.53,671179
5.83,-11.97,-24.56,6.49,-8.39,-2.60,-127.96,38.67,-16.28,671213
8.49,-7.33,-21.89,4.71,-5.74,-1.65,-126.79,41.39,3.23,671248
1.98,-9.09,-13.04,3.80,-3.84,-0.42,-121.53,51.97,14.63,671282
-5.33,-9.40,-17.17,4.78,-5.11,-0.94,-109.69,68.96,23.18,671316
-10.68,-7.36,-21.25,6.33,-6.99,-0.94,-95.05,82.58,25.50,671350
-5.69,-4.83,-26.79,6.63,-7.84,-1.24,-77.76,95.22,19.31,671384
-3.99,-3.90,-29.45,6.05,-7.35,-0.86,-67.85,101.11,10.44,671418
-5.56,-0.00,-25.73,5.68,-7.43,-1.05,-61.85,104.60,3.48,671453
4.18,-2.29,-23.60,5.36,-8.36,-1.39,-57.53,108.27,-3.51,671487
4.45,-1.47,-21.24,4.67,-7.86,-1.60,-57.76,111.40,-6.52,671521
-2.53,-6.73,-25.87,4.74,-8.50,-2.69,-61.53,114.34,-9.89,671555
-3.30,-4.26,-20.65,4.49,-8.40,-2.85,-67.85,116.05,-9.68,671589
-3.68,-8.25,-19.40,5.04,-8.96,-2.99,-73.18,117.36,-10.03,671624
-3.46,-11.29,-19.12,5.71,-9.37,-3.07,-80.66,119.44,-11.85,671658
-5.88,-11.33,-21.43,5.93,-9.39,-2.91,-85.57,117.28,-16.38,671692
-3.92,-9.07,-21.07,5.67,-8.57,-2.87,-94.20,111.11,-19.29,671726
-7.36,-13.57,-22.24,5.86,-8.24,-2.61,-101.32,102.78,-18.88,671760
-7.39,-7.58,-22.66,5.98,-8.39,-2.73,-106.65,95.12,-11.21,671794
-4.87,-10.36,-22.00,5.63,-7.71,-2.03,-107.64,91.57,2.32,671829
-4.52,-9.77,-20.33,5.70,-7.68,-2.18,-102.97,92.91,11.40,671863
-3.24,-9.03,-21.03,5.65,-7.59,-2.21,-90.66,97.21,19.60,671897
-3.40,-9.44,-20.29,5.55,-7.66,-2.15,-81.72,102.02,19.00,671931
-1.54,-7.76,-25.16,4.86,-7.18,-1.89,-71.47,104.49,14.00,671965
-0.48,-5.50,-20.23,4.44,-6.97,-1.53,-62.61,105.42,7.82,672000
1.05,-5.12,-15.89,4.01,-6.80,-0.86,-55.96,106.05,3.48,672034
3.55,-4.79,-14.78,4.07,-6.14,-0.76,-50.80,106.58,-2.73,672068
0.51,-4.48,-16.27,3.66,-5.90,-1.13,-49.05,106.14,-9.13,672102
0.10,-4.97,-16.30,3.53,-6.08,-1.48,-50.04,106.28,-13.10,672136
1.71,-10.07,-15.11,3.63,-6.35,-1.88,-54.81,106.69,-17.14,672170
-0.81,-5.82,-14.29,3.94,-6.88,-2.66,-62.12,105.54,-19.38,672205
-1.94,-9.12,-14.38,3.97,-7.14,-2.25,-69.77,104.15,-18.42,672239
-2.61,-11.56,-13.37,4.49,-7.31,-2.28,-78.59,105.19,-17.39,672273
-4.45,-10.92,-16.76,5.05,-7.82,-2.34,-85.43,105.22,-15.40,672307
-5.35,-9.50,-16.13,5.22,-8.06,-2.16,-90.97,106.40,-11.96,672341
-6.02,-12.64,-16.45,5.55,-7.97,-2.13,-94.08,106.93,-12.53,672375
-8.86,-12.86,-19.97,6.05,-9.01,-2.75,-98.96,105.14,-11.66,672410
-4.87,-8.49,-22.61,5.92,-9.20,-3.26,-106.40,97.22,-4.49,672444
-4.91,-5.76,-24.23,5.14,-7.79,-2.97,-109.76,91.03,5.16,672478
-2.70,-6.77,-18.69,4.29,-6.23,-2.13,-107.44,88.02,19.20,672512
-2.34,-9.47,-12.99,4.18,-5.54,-1.48,-100.57,90.53,27.96,672546
1.10,-10.05,-11.41,4.57,-6.30,-1.59,-89.17,95.24,33.22,672581
0.56,-8.48,-16.20,4.46,-7.07,-1.70,-73.40,100.79,34.26,672615
0.73,-8.20,-16.13,4.40,-6.27,-1.61,-61.27,104.24,29.61,672649
0.81,-5.71,-15.49,3.83,-5.65,-1.20,-49.55,105.63,21.50,672683
0.61,-5.37,-14.50,3.55,-5.17,-0.84,-41.60,106.02,12.96,672717
2.45,-7.60,-11.75,3.35,-5.46,-0.70,-35.34,105.54,5.76,672751
0.69,-9.50,-12.18,3.60,-5.49,-1.20,-32.39,104.02,-4.06,672786
1.36,-10.05,-13.33,3.93,-5.76,-1.63,-33.25,102.97,-13.02,672820
-1.95,-9.57,-15.15,4.49,-6.52,-2.45,-37.97,100.28,-21.76,672854
-1.61,-5.69,-18.87,5.01,-7.63,-2.96,-46.95,97.43,-29.90,672888
-4.19,-7.92,-20.56,5.11,-7.94,-2.66,-56.42,93.61,-33.95,672922
-3.97,-8.78,-19.16,4.62,-7.34,-2.01,-68.55,88.19,-36.04,672957
-0.62,-6.45,-16.87,3.90,-6.47,-1.63,-78.05,85.98,-33.89,672991
-0.20,-7.27,-13.90,4.14,-6.31,-1.31,-86.93,85.66,-28.71,673025
-2.43,-6.96,-14.24,4.85,-7.44,-1.76,-93.98,85.03,-20.90,673059
1.12,-8.30,-20.04,5.08,-8.12,-2.54,-100.63,83.13,-10.23,673093
-2.37,-5.66,-19.33,5.13,-8.48,-3.44,-106.52,80.02,6.34,673127
-1.84,-6.65,-17.55,4.84,-7.81,-2.99,-107.13,78.05,20.26,673162
-1.56,-8.95,-13.67,4.61,-7.47,-2.54,-101.77,79.23,35.94,673196
-1.44,-10.84,-13.97,4.33,-7.30,-2.42,-93.57,81.16,46.59,673230
-3.39,-7.51,-11.66,4.55,-7.13,-2.27,-83.03,84.33,53.49,673264
-3.69,-9.56,-13.68,4.66,-7.22,-2.30,-66.66,91.77,56.28,673298
-2.54,-6.94,-15.62,4.81,-7.56,-2.57,-53.14,96.73,54.19,673333
-1.50,-8.37,-17.43,4.61,-7.45,-2.69,-39.74,101.80,44.81,673367
-1.69,-7.17,-15.59,4.54,-7.33,-2.91,-32.56,103.96,33.98,673401
-4.11,-6.40,-15.07,4.77,-7.81,-3.04,-29.38,105.22,21.41,673435
-2.89,-7.74,-15.51,4.81,-7.93,-3.00,-29.76,105.95,7.35,673469
-0.90,-7.31,-14.37,4.46,-7.33,-2.83,-32.80,104.85,-2.21,673503
-0.32,-6.06,-15.05,4.25,-7.05,-2.63,-37.71,103.45,-10.82,673538
0.46,-5.05,-14.15,4.14,-7.00,-2.58,-43.76,102.12,-17.70,673572
0.26,-6.51,-13.42,3.94,-6.67,-2.68,-52.09,100.03,-21.92,673606
0.41,-6.56,-12.85,3.92,-6.74,-2.80,-63.80,96.81,-23.56,673640
-1.23,-6.61,-11.61,3.90,-6.71,-2.89,-73.76,92.30,-22.81,673674
1.68,-7.32,-10.49,3.83,-6.58,-2.90,-85.63,86.88,-14.83,673708
-0.38,-8.10,-11.80,4.09,-6.65,-3.05,-94.05,82.93,-6.77,673743
0.41,-7.30,-12.94,4.44,-6.81,-3.21,-100.04,78.76,2.89,673777
-0.31,-7.79,-13.08,4.56,-6.88,-3.26,-103.70,74.82,16.65,673811
0.17,-7.85,-13.29,4.60,-6.90,-3.41,-102.91,72.93,28.41,673845
-1.10,-6.33,-13.51,4.65,-6.88,-3.48,-98.87,71.37,41.58,673879
-0.00,-3.37,-11.53,4.67,-6.84,-3.22,-91.84,71.73,51.64,673914
-0.49,-10.12,-10.86,4.56,-7.11,-2.97,-81.00,74.25,60.48,673948
1.64,-6.74,-11.17,4.55,-6.82,-3.23,-66.57,79.47,65.30,673982
1.17,-4.01,-12.84,4.20,-6.44,-3.10,-55.70,83.25,64.59,674016
0.84,-5.03,-12.88,4.03,-6.60,-3.02,-44.81,88.18,60.38,674050
2.01,-5.72,-12.91,4.25,-6.44,-3.41,-35.00,93.34,53.51,674084
3.57,-3.07,-11.80,4.28,-6.68,-3.66,-31.20,96.99,44.64,674119
2.64,-3.89,-10.87,4.27,-6.82,-3.78,-30.24,100.29,34.24,674153
3.09,-4.23,-8.60,4.19,-7.27,-3.96,-31.45,102.08,25.17,674187
2.79,-7.45,-7.92,4.22,-7.09,-3.99,-35.47,102.98,17.93,674221
4.50,-5.26,-6.51,3.88,-6.44,-3.88,-42.65,102.48,10.17,674255
2.38,-5.86,-8.07,3.58,-5.96,-3.67,-49.56,100.91,6.08,674290
3.21,-6.10,-9.15,3.64,-5.92,-3.79,-59.32,96.78,3.03,674324
2.47,-3.45,-9.03,3.94,-5.64,-3.76,-68.08,92.78,1.80,674358
3.11,-5.93,-8.31,3.63,-5.99,-3.88,-76.75,87.87,3.45,674392
3.62,-6.43,-7.67,3.76,-5.99,-3.95,-84.45,79.51,9.76,674426
1.78,-7.40,-6.11,4.14,-6.08,-4.07,-89.84,73.05,16.14,674460
1.32,-8.62,-6.14,4.39,-6.39,-4.11,-92.58,66.37,26.47,674495
0.66,-8.33,-6.46,4.64,-6.59,-3.96,-91.79,61.87,37.34,674529
-0.08,-10.72,-6.03,4.75,-6.73,-3.84,-87.26,60.63,46.73,674563
-0.26,-10.09,-6.47,5.02,-6.54,-3.90,-79.57,62.48,55.67,674597
-0.48,-10.16,-7.15,5.06,-6.40,-3.64,-72.03,65.86,59.47,674631
-2.37,-11.29,-7.65,5.28,-6.14,-3.50,-62.85,73.41,59.56,674666
-3.50,-8.91,-10.69,5.32,-6.70,-3.50,-54.72,78.94,57.89,674700
-2.05,-6.36,-12.13,5.08,-6.81,-3.12,-46.57,84.38,53.24,674734
-0.73,-5.66,-9.76,4.86,-6.83,-2.76,-37.40,90.47,44.78,674768
1.17,-10.06,-9.10,4.06,-6.43,-2.36,-31.35,93.50,36.64,674802
1.24,-8.76,-8.16,4.04,-5.65,-2.19,-28.31,96.13,25.56,674836
2.29,-7.12,-7.16,3.75,-5.21,-1.72,-26.32,97.41,16.49,674871
1.44,-8.93,-8.69,3.21,-4.82,-1.19,-24.23,98.32,8.78,674905
1.20,-7.66,-9.74,3.01,-4.27,-1.12,-23.18,98.63,0.89,674939
0.13,-5.82,-8.69,2.93,-4.25,-1.16,-23.44,99.02,-6.36,674973
1.82,-5.75,-7.83,2.81,-4.68,-1.04,-23.05,99.42,-12.54,675007
0.21,-9.28,-5.89,3.15,-4.44,-0.85,-23.91,99.25,-21.22,675041
0.86,-11.51,-8.15,3.12,-4.65,-1.10,-25.86,99.43,-28.56,675076
1.61,-10.33,-5.42,2.93,-4.49,-1.19,-30.50,98.00,-37.65,675110
2.77,-9.89,-7.12,2.94,-4.38,-1.42,-35.82,95.88,-44.53,675144
0.23,-12.18,-8.79,3.35,-4.75,-1.89,-46.35,90.72,-52.15,675178
-0.27,-11.06,-9.44,3.78,-4.68,-2.05,-56.46,84.23,-57.47,675212
-0.59,-8.80,-9.59,3.94,-4.86,-2.06,-67.96,77.01,-60.55,675247
-1.09,-9.28,-9.51,4.21,-5.20,-2.20,-82.15,66.00,-59.21,675281
-0.05,-8.51,-12.41,3.99,-5.22,-2.26,-94.04,56.61,-53.35,675315
-2.37,-2.34,-9.47,4.10,-5.04,-1.94,-106.30,47.34,-42.69,675349
-0.40,-9.17,-8.24,4.00,-5.09,-0.88,-113.46,44.08,-30.82,675383
4.33,-11.49,-7.09,3.89,-4.35,-0.48,-117.76,44.33,-17.70,675417
4.75,-11.07,-5.60,3.36,-3.91,-0.27,-119.44,49.01,-5.36,675452
5.97,-9.91,-6.41,2.77,-3.24,-0.49,-119.98,53.42,3.30,675486
5.30,-6.23,-7.05,2.35,-2.89,-0.58,-119.63,57.23,13.37,675520
5.50,-5.98,-6.60,1.99,-2.48,-0.40,-118.40,62.31,15.81,675554
5.50,-7.07,-5.23,1.79,-2.09,-0.42,-117.16,65.93,19.80,675588
5.83,-7.00,-5.38,1.78,-2.39,-0.43,-115.24,70.08,23.93,675623
5.82,-6.98,-3.57,1.82,-2.55,-0.45,-112.32,73.60,28.35,675657
4.60,-7.01,-3.29,1.84,-2.48,-0.31,-109.89,77.26,32.80,675691
4.75,-8.23,-3.82,1.83,-2.52,-0.28,-104.94,82.36,36.89,675725
5.64,-9.00,-4.40,1.76,-2.44,-0.42,-101.17,85.85,39.64,675759
4.20,-6.83,-3.73,1.67,-2.35,-0.57,-97.15,88.53,42.18,675793
4.00,-6.94,-2.86,1.55,-2.29,-0.36,-93.17,91.07,43.64,675828
3.15,-9.24,-2.13,1.70,-2.44,-0.10,-87.62,95.38,45.62,675862
2.54,-11.45,-7.13,1.79,-3.03,-0.29,-79.92,99.27,47.72,675896
4.22,-6.71,-5.08,1.18,-1.80,-0.29,-74.33,101.26,48.25,675930
3.66,-7.90,-1.88,0.91,-1.48,0.31,-67.89,103.65,48.10,675964
5.12,-10.53,-0.77,1.17,-1.79,0.16,-61.15,106.24,46.68,675999
4.81,-7.89,-2.10,1.42,-2.15,-0.29,-55.51,107.48,44.62,676033
3.77,-8.85,-3.52,1.50,-2.18,-0.27,-49.74,109.92,41.87,676067
2.32,-8.69,-4.15,1.65,-2.17,-0.41,-45.09,111.39,37.80,676101
2.93,-9.66,-3.94,1.73,-2.01,-0.40,-40.66,113.05,32.05,676135
2.29,-9.00,-2.63,1.70,-2.09,-0.14,-36.71,113.29,25.94,676169
1.90,-10.76,-0.13,2.05,-2.96,-0.34,-32.17,113.72,20.52,676204
1.75,-9.18,-2.54,2.72,-4.41,-0.88,-28.65,113.87,11.62,676238
1.26,-7.65,-3.29,3.02,-4.92,-1.08,-27.54,113.10,1.71,676272
4.69,-11.51,-6.46,3.34,-5.00,-1.17,-27.99,111.03,-9.47,676306
15.90,-4.97,-2.68,2.29,-3.21,-1.30,-30.55,109.31,-14.48,676340
3.51,-7.37,-4.80,2.33,-3.43,-0.72,-32.07,107.89,-19.73,676375
6.94,-7.95,-9.37,1.55,-2.89,-0.17,-32.90,105.55,-23.47,676409
5.45,-6.72,-0.31,0.18,0.66,0.58,-31.60,105.79,-24.85,676443
4.79,-8.86,0.92,0.29,-0.45,0.23,-29.41,105.33,-24.74,676477
7.71,-7.21,-1.62,0.42,-0.82,-0.00,-28.91,105.50,-25.78,676511
4.65,-8.62,-1.31,0.20,-0.06,0.25,-28.03,104.74,-25.69,676545
5.03,-8.57,-0.61,0.23,-0.39,0.16,-25.96,105.14,-26.53,676580
4.10,-8.33,-1.43,0.37,-0.66,0.11,-26.15,105.06,-27.39,676614
4.56,-8.17,-1.59,0.38,-0.63,0.14,-25.30,104.22,-27.13,676648
4.95,-8.86,-0.58,0.31,-0.33,0.27,-24.06,104.56,-28.11,676682
4.43,-7.61,-0.43,0.42,-0.53,0.13,-23.15,104.88,-29.39,676716
4.83,-9.35,-0.38,0.37,-0.59,0.14,-22.57,104.50,-30.24,676750
2.87,-8.68,-1.77,0.60,-1.47,-0.29,-23.33,103.55,-31.86,676785
6.23,-7.20,-3.54,0.23,-0.71,-0.03,-24.42,103.57,-32.32,676819
5.25,-8.94,-0.21,-0.03,0.54,0.10,-23.72,103.92,-32.87,676853
2.80,-8.65,-0.69,0.08,-0.12,-0.07,-23.71,103.76,-32.96,676887
4.58,-9.17,-0.03,0.12,-0.52,-0.12,-24.07,103.83,-32.32,676921
3.97,-9.17,-0.10,0.07,0.06,0.00,-24.39,104.33,-32.67,676956
3.11,-9.22,0.02,0.10,-0.03,0.10,-23.74,104.53,-33.66,676990
4.34,-9.18,-0.15,0.08,-0.14,0.08,-23.59,104.25,-32.37,677024
3.96,-8.91,-0.83,0.05,0.04,0.14,-22.76,104.38,-32.97,677058
3.86,-8.36,-0.89,0.02,0.00,0.09,-22.41,104.31,-32.68,677092
3.92,-8.65,-1.34,0.04,-0.22,-0.01,-22.27,104.17,-32.74,677126
3.76,-8.19,-1.55,0.06,-0.18,-0.13,-21.91,104.21,-32.91,677161
3.99,-8.48,-1.30,0.07,-0.20,-0.11,-22.77,104.49,-33.02,677195
5.43,-8.88,-0.94,0.06,0.10,-0.09,-22.80,104.22,-32.89,677229
1.87,-10.47,0.65,0.29,0.24,-0.08,-23.09,103.77,-34.00,677263
0.67,-9.19,-1.17,0.59,-0.66,-0.28,-23.84,103.96,-35.71,677297
3.53,-10.41,0.42,0.18,0.36,0.30,-23.06,104.44,-36.26,677332
2.30,-7.20,0.82,0.40,-0.52,0.04,-22.04,103.84,-37.36,677366
4.94,-9.61,-0.54,0.51,-1.12,-0.00,-22.19,103.51,-38.85,677400
3.20,-8.29,-1.28,0.36,-0.59,-0.02,-22.76,103.05,-39.35,677434
3.04,-9.29,0.15,0.54,-1.22,-0.23,-23.03,102.95,-39.52,677468
2.95,-9.19,-0.98,0.60,-1.39,-0.17,-24.71,102.41,-41.11,677502
6.01,-7.65,-1.13,0.57,-1.26,-0.25,-26.53,102.41,-41.74,677537
4.73,-8.74,-0.72,0.38,-0.74,-0.08,-26.66,101.87,-42.55,677571
5.25,-7.62,-0.71,0.19,-0.29,-0.08,-27.21,101.80,-43.19,677605
5.48,-8.49,0.23,0.07,0.08,-0.06,-27.29,101.94,-43.86,677639
4.59,-8.83,-0.27,-0.02,0.23,-0.04,-27.67,101.84,-44.12,677673
3.53,-9.17,-0.04,-0.02,0.26,-0.07,-27.33,101.62,-43.89,677708
3.16,-9.14,-0.42,0.03,0.01,-0.08,-27.86,101.96,-43.98,677742
3.80,-9.14,-0.16,0.06,0.02,-0.05,-27.97,101.72,-44.17,677776
3.11,-9.33,-0.04,0.10,-0.09,-0.03,-28.25,101.96,-44.37,677810
3.95,-8.55,-0.00,0.09,-0.15,-0.00,-27.99,101.53,-44.45,677844
3.96,-9.15,-0.18,0.06,-0.07,0.02,-27.64,101.75,-44.64,677878
3.80,-9.24,-0.16,0.04,-0.16,-0.01,-27.51,102.15,-43.73,677913
4.45,-9.03,-0.18,0.00,-0.11,-0.05,-27.67,102.59,-43.35,677947
3.57,-9.01,-0.33,-0.04,0.05,-0.06,-27.77,102.47,-42.94,677981
3.64,-8.97,-0.23,-0.03,0.07,-0.04,-27.57,101.74,-43.69,678015
3.55,-9.23,-0.34,-0.01,-0.04,-0.03,-27.40,101.90,-43.34,678049
3.60,-8.69,-0.55,0.03,-0.01,-0.02,-27.32,102.31,-43.36,678083
3.83,-8.84,-0.31,0.05,-0.11,-0.06,-26.98,101.96,-43.79,678118
4.49,-8.54,-0.62,0.05,-0.18,-0.09,-27.54,101.93,-44.04,678152
4.06,-8.77,-0.21,0.03,-0.05,-0.10,-28.03,102.09,-43.96,678186
4.00,-9.17,-0.22,0.01,-0.05,-0.07,-28.22,101.61,-43.28,678220
3.55,-9.20,-0.09,0.01,0.06,-0.06,-28.15,101.13,-43.42,678254
3.53,-9.11,-0.19,0.04,0.02,-0.03,-28.57,101.53,-43.57,678289
3.82,-8.97,-0.42,0.05,-0.02,-0.02,-27.97,101.33,-43.36,678323
3.54,-9.08,-0.32,0.03,0.09,-0.02,-27.65,101.78,-44.40,678357
3.88,-8.82,-0.49,0.02,0.02,-0.04,-27.29,102.32,-43.88,678391
3.95,-9.15,-0.23,0.04,0.04,-0.05,-27.57,101.93,-44.42,678425
3.85,-9.10,-0.65,0.03,-0.03,-0.07,-27.58,101.80,-44.18,678459
3.26,-9.26,0.58,0.18,0.02,0.03,-27.04,102.02,-44.40,678494
3.71,-9.00,0.13,0.20,-0.17,-0.02,-27.16,101.49,-44.72,678528
4.83,-8.86,-0.12,0.16,-0.13,0.00,-26.81,101.67,-44.74,678562
3.85,-8.58,-0.11,0.11,-0.31,-0.03,-26.81,101.71,-45.83,678596
3.65,-9.24,-0.15,0.06,-0.11,-0.09,-26.98,102.02,-46.27,678630
3.84,-9.03,-0.32,0.04,-0.07,-0.08,-27.68,101.75,-46.17,678665
3.01,-9.48,0.21,0.07,0.00,-0.00,-27.83,101.74,-46.54,678699
3.82,-9.15,0.21,0.16,-0.23,-0.05,-27.62,101.51,-46.83,678733
4.04,-8.81,-0.03,0.18,-0.20,0.01,-27.17,101.34,-46.55,678767
4.02,-8.64,-0.16,0.17,-0.16,0.05,-26.86,101.87,-47.62,678801
3.70,-9.00,-0.34,0.15,-0.16,0.00,-26.59,101.78,-48.16,678835
4.20,-8.69,-0.12,0.12,-0.10,0.06,-26.41,102.08,-48.19,678870
3.93,-9.12,0.49,0.16,-0.08,0.08,-25.71,101.56,-48.39,678904
3.85,-9.32,0.33,0.17,-0.18,0.06,-25.90,101.67,-48.60,678938
4.05,-8.72,-0.26,0.14,-0.18,0.03,-25.75,101.58,-49.56,678972
3.66,-9.05,0.20,0.09,-0.02,0.04,-25.61,101.42,-49.81,679006
3.78,-8.76,-0.44,0.01,-0.11,-0.10,-25.10,101.90,-48.93,679041
3.28,-9.39,0.14,-0.03,0.14,-0.00,-24.85,101.55,-49.42,679075
3.08,-9.25,0.57,0.07,0.05,0.07,-24.23,101.62,-49.53,679109
3.63,-9.65,0.56,0.14,-0.09,0.14,-23.68,101.61,-49.97,679143
3.73,-8.71,0.42,0.19,-0.19,0.10,-22.86,101.37,-49.31,679177
3.30,-9.36,0.18,0.21,-0.23,0.12,-22.89,100.86,-50.72,679211
3.27,-9.14,-0.08,0.18,-0.33,0.04,-22.74,101.18,-51.02,679246
2.07,-9.23,-0.11,0.33,-1.10,-0.27,-24.41,101.11,-51.78,679280
4.94,-8.51,-1.39,0.10,-0.42,-0.14,-25.67,100.76,-51.81,679314
4.46,-8.76,0.22,-0.04,0.30,-0.11,-25.58,100.80,-52.02,679348
2.45,-9.56,0.73,-0.06,-0.11,-0.18,-25.84,100.60,-51.24,679382
5.10,-9.03,0.03,-0.05,-0.20,-0.28,-26.78,100.75,-50.80,679416
2.78,-9.28,-0.06,-0.05,0.20,-0.15,-27.38,100.41,-51.72,679451
2.87,-9.85,0.43,0.05,-0.04,-0.09,-27.71,99.82,-51.01,679485
4.37,-8.62,0.34,0.09,-0.07,0.02,-27.76,100.23,-51.23,679519
3.68,-8.80,0.28,0.13,-0.03,0.05,-27.46,100.06,-51.64,679553
4.83,-8.62,-0.31,0.03,-0.17,-0.05,-27.61,100.15,-51.67,679587
3.83,-8.67,-0.32,-0.07,0.02,-0.12,-27.51,100.80,-51.45,679622
4.05,-9.18,0.05,-0.05,-0.05,-0.14,-28.35,100.42,-50.92,679656
3.40,-9.06,0.03,-0.10,0.04,-0.16,-28.52,100.58,-49.78,679690
3.42,-9.64,0.24,-0.04,0.02,-0.08,-28.76,100.13,-50.00,679724
3.51,-9.09,0.11,-0.01,0.02,-0.08,-29.49,100.31,-50.41,679758
3.55,-9.12,-0.23,-0.03,0.01,-0.09,-29.32,100.47,-49.88,679792
3.68,-8.98,-0.06,-0.04,0.05,-0.10,-29.32,100.07,-49.11,679827
3.59,-9.16,0.17,-0.00,0.02,-0.08,-29.98,100.45,-49.24,679861
3.68,-9.09,0.11,0.01,-0.04,-0.10,-30.27,100.80,-49.31,679895
3.73,-8.78,-0.16,-0.01,-0.02,-0.10,-30.49,100.38,-49.53,679929
3.34,-9.26,0.03,-0.01,0.08,-0.10,-30.31,100.04,-49.42,679963
3.01,-9.74,-0.01,-0.01,-0.03,-0.12,-30.56,100.53,-49.74,679998
3.48,-9.14,0.07,0.04,-0.05,-0.06,-30.78,100.56,-49.44,680032
3.19,-9.52,0.30,0.11,-0.02,0.04,-30.40,100.77,-49.66,680066
4.20,-8.61,0.25,0.16,-0.15,0.02,-29.93,100.57,-50.18,680100
4.13,-8.79,-0.22,0.16,-0.14,0.04,-29.90,100.20,-50.25,680134
4.83,-8.41,-0.27,0.11,-0.12,-0.02,-29.42,100.35,-50.66,680168
4.70,-8.35,-0.38,0.05,-0.08,-0.11,-29.51,100.73,-50.51,680203
3.98,-9.20,-0.17,-0.06,0.08,-0.08,-29.41,100.42,-50.83,680237
3.77,-8.77,-0.11,-0.07,-0.01,-0.17,-30.27,100.63,-51.13,680271
3.68,-9.52,0.20,-0.04,0.06,-0.08,-30.90,100.53,-50.18,680305
3.61,-8.91,0.07,-0.01,-0.00,-0.10,-31.00,100.42,-49.72,680339
3.48,-9.43,0.08,0.00,0.01,-0.03,-30.56,100.72,-49.72,680374
3.77,-8.66,-0.17,-0.02,-0.00,-0.12,-31.12,100.75,-49.74,680408
3.15,-9.64,0.08,0.01,0.15,0.00,-30.52,100.35,-50.07,680442
3.34,-9.01,0.09,0.02,0.02,-0.03,-30.69,100.91,-49.87,680476
3.53,-9.34,0.18,0.08,-0.09,-0.00,-30.50,101.15,-50.31,680510
4.24,-8.84,0.09,0.09,-0.10,0.01,-30.39,100.92,-49.65,680544
3.60,-8.95,0.17,0.09,-0.08,0.00,-29.74,100.92,-50.23,680579
4.35,-8.45,-0.06,0.11,-0.16,-0.00,-29.95,100.92,-49.91,680613
3.93,-8.72,-0.25,0.05,-0.10,-0.03,-29.55,101.39,-50.25,680647
4.34,-8.79,-0.02,0.03,-0.12,-0.06,-29.30,101.14,-50.51,680681
3.94,-8.53,-0.31,0.03,-0.12,-0.07,-29.77,100.61,-49.91,680715
3.86,-9.21,-0.39,0.01,-0.08,-0.03,-29.45,100.75,-50.04,680750
3.94,-8.63,-0.38,-0.04,0.00,-0.18,-30.49,100.99,-50.58,680784
3.19,-9.68,0.24,-0.03,0.10,-0.04,-30.11,101.18,-50.18,680818
3.34,-8.87,0.32,0.04,-0.05,-0.07,-29.90,100.72,-50.19,680852
3.28,-9.79,0.36,0.20,-0.12,-0.11,-29.95,100.86,-50.57,680886
3.49,-9.77,2.63,0.43,-0.34,-0.08,-29.57,100.50,-51.33,680920
1.77,-10.16,0.96,0.81,-1.58,-0.37,-32.29,99.31,-52.60,680955
6.33,-7.50,-2.04,0.86,-1.71,-0.52,-35.91,97.73,-53.61,680989
4.26,-7.18,-2.33,0.28,-0.11,0.21,-36.16,97.85,-55.12,681023
2.58,-8.69,1.06,0.09,0.16,0.36,-34.58,98.11,-55.28,681057
3.47,-11.06,0.69,0.11,-0.05,0.19,-32.81,98.30,-55.60,681091
5.75,-8.06,0.26,0.05,-0.18,-0.02,-32.87,98.45,-55.22,681125
3.73,-8.64,-0.62,-0.09,0.06,-0.06,-32.64,98.85,-55.13,681160
3.49,-9.56,-0.40,0.04,-0.05,0.05,-32.26,98.87,-55.39,681194
3.79,-8.55,-0.77,0.09,-0.10,-0.02,-31.15,99.20,-55.67,681228
4.69,-9.10,0.48,0.05,0.08,0.09,-31.19,99.33,-55.58,681262
3.88,-8.71,0.19,-0.01,-0.06,-0.07,-31.23,99.23,-55.80,681296
3.88,-9.20,-0.21,-0.03,-0.03,-0.11,-31.37,99.53,-55.57,681331
2.81,-9.45,-0.08,-0.03,0.01,-0.10,-31.56,99.47,-55.14,681365
3.44,-9.31,0.47,0.04,-0.01,-0.00,-31.23,99.84,-55.14,681399
3.60,-9.41,0.75,0.13,-0.11,0.07,-30.91,99.39,-55.89,681433
3.84,-8.73,0.28,0.16,-0.15,0.11,-30.71,99.33,-56.49,681467
3.94,-8.46,0.19,0.15,-0.07,0.13,-29.79,99.49,-56.45,681501
3.77,-8.75,-0.34,0.08,-0.12,0.04,-28.84,100.12,-56.91,681536
4.03,-8.79,-0.16,0.04,-0.06,0.02,-28.31,99.78,-57.72,681570
4.50,-8.63,-0.09,0.05,-0.00,0.01,-28.38,99.18,-57.76,681604
3.53,-9.04,0.03,0.04,0.01,-0.05,-28.47,100.01,-57.37,681638
4.32,-9.33,-0.29,-0.06,-0.13,-0.18,-28.47,99.66,-57.47,681672
3.87,-8.71,-0.17,-0.10,0.05,-0.21,-28.97,99.42,-56.65,681707
2.89,-9.94,0.25,-0.03,0.05,-0.05,-29.74,99.66,-57.44,681741
3.70,-8.97,0.25,0.01,-0.06,-0.09,-29.42,99.63,-56.66,681775
3.30,-9.27,0.15,0.06,-0.04,-0.02,-29.98,99.53,-56.07,681809
3.75,-8.67,-0.17,0.11,-0.12,-0.03,-29.48,99.62,-56.12,681843
3.94,-9.18,-0.03,0.10,-0.08,-0.04,-29.54,99.33,-56.68,681877
3.56,-8.80,-0.17,-0.01,-0.05,-0.15,-30.20,99.56,-56.61,681912
3.57,-9.19,0.08,0.00,-0.03,-0.13,-30.88,99.74,-56.42,681946
3.95,-9.16,0.32,0.04,-0.00,-0.05,-30.72,99.78,-56.46,681980
3.58,-9.44,0.45,0.09,-0.05,0.00,-30.52,99.53,-57.35,682014
4.38,-8.61,0.17,0.09,-0.08,0.02,-30.08,99.52,-57.34,682048
3.97,-9.01,-0.04,0.08,0.00,0.05,-30.30,100.10,-56.83,682083
4.03,-8.84,-0.09,0.03,-0.04,-0.02,-30.05,99.88,-56.23,682117
3.36,-9.12,-0.09,-0.03,0.05,-0.08,-30.24,99.82,-56.65,682151
3.54,-9.42,0.36,-0.01,0.03,-0.03,-30.24,99.23,-56.83,682185
3.23,-9.22,0.41,0.00,0.09,-0.01,-29.70,99.72,-57.23,682219
3.39,-9.06,0.23,0.03,-0.01,-0.01,-29.80,99.55,-57.32,682253
3.58,-9.05,0.21,0.02,0.01,0.02,-29.66,100.31,-56.78,682288
3.99,-8.85,-0.06,0.03,-0.03,0.00,-29.39,99.72,-57.44,682322
3.96,-8.89,0.22,0.03,0.03,0.02,-28.97,99.84,-57.51,682356
3.88,-8.80,0.08,0.02,-0.02,-0.02,-28.87,100.12,-56.53,682390
3.93,-9.15,0.09,0.03,-0.02,-0.02,-28.69,100.16,-57.16,682424
3.48,-8.99,-0.09,-0.01,0.01,-0.06,-28.60,99.85,-57.72,682458
3.58,-9.15,0.06,0.01,-0.02,-0.03,-28.62,100.01,-57.04,682493
3.42,-9.17,0.18,0.02,0.03,-0.02,-28.57,99.88,-56.85,682527
3.49,-9.31,0.15,0.02,-0.03,-0.01,-29.04,100.01,-57.32,682561
3.59,-9.04,0.10,0.02,0.02,-0.02,-28.52,100.22,-57.10,682595
3.27,-9.20,-0.02,0.02,0.03,-0.03,-28.49,99.90,-56.66,682629
3.70,-9.03,-0.02,0.04,-0.07,-0.07,-28.38,100.10,-56.34,682664
3.53,-9.22,0.26,0.04,-0.01,-0.06,-28.19,100.03,-56.58,682698
3.41,-9.03,0.22,0.05,-0.04,-0.07,-28.46,99.91,-56.31,682732
3.71,-9.18,0.19,0.08,-0.06,-0.02,-28.78,99.75,-57.00,682766
3.87,-8.99,0.19,0.06,-0.06,-0.06,-28.59,100.32,-56.87,682800
3.42,-9.30,0.23,0.02,-0.03,-0.06,-28.85,99.71,-57.66,682834
3.63,-9.33,0.25,0.05,-0.06,-0.04,-29.14,99.68,-57.67,682869
3.60,-9.26,0.26,0.04,-0.03,-0.05,-28.94,99.84,-57.10,682903
3.67,-9.22,0.12,0.00,-0.03,-0.07,-29.13,100.23,-56.72,682937
3.10,-9.19,0.26,-0.02,0.01,-0.08,-28.90,100.19,-57.35,682971
3.12,-9.56,0.26,0.01,-0.06,-0.04,-29.57,100.03,-57.37,683005
3.56,-9.09,0.25,0.03,-0.08,-0.04,-29.01,99.71,-56.93,683040
3.62,-9.05,0.32,0.06,-0.02,0.05,-28.57,100.10,-56.64,683074
4.05,-8.71,0.23,0.10,-0.10,0.01,-29.17,99.82,-57.35,683108
4.06,-8.60,0.04,0.09,-0.09,0.01,-28.60,100.58,-57.51,683142
4.26,-8.72,-0.02,0.05,-0.03,-0.01,-28.62,99.96,-56.93,683176
3.96,-9.17,0.06,-0.00,0.10,-0.03,-28.34,99.90,-57.78,683210
4.41,-8.59,-0.02,-0.07,0.01,-0.17,-28.56,99.37,-57.92,683245
3.91,-9.04,0.12,-0.09,0.11,-0.14,-29.01,99.80,-56.87,683279
3.02,-9.48,-0.04,-0.11,0.02,-0.16,-29.39,99.96,-55.54,683313
3.03,-9.53,-0.02,-0.08,0.08,-0.12,-29.98,99.31,-55.80,683347
3.06,-9.58,0.16,-0.05,0.12,-0.05,-30.08,99.23,-56.37,683381
3.13,-9.33,0.23,0.03,-0.02,-0.03,-29.54,99.66,-55.01,683416
3.70,-9.12,0.28,0.05,-0.05,-0.02,-29.11,99.62,-55.10,683450
3.39,-9.22,0.13,0.03,-0.05,-0.06,-29.11,100.26,-55.58,683484
3.59,-9.08,0.03,0.06,-0.10,-0.05,-29.20,99.84,-56.30,683518
3.24,-9.34,0.06,0.08,-0.11,-0.01,-28.81,99.68,-55.76,683552
3.89,-8.73,-0.02,0.12,-0.14,0.02,-29.47,100.19,-55.66,683586
3.92,-8.76,0.07,0.11,-0.08,-0.01,-29.09,100.45,-56.83,683621
4.11,-8.63,0.07,0.10,-0.09,-0.01,-28.87,100.01,-56.53,683655
3.77,-9.08,-0.17,0.04,-0.03,-0.08,-28.98,100.41,-57.23,683689
3.93,-9.06,0.00,0.05,0.04,-0.00,-28.92,100.18,-56.80,683723
3.89,-9.02,0.37,0.07,0.07,0.02,-28.18,99.66,-57.02,683757
3.97,-8.82,0.23,0.10,0.01,0.04,-27.59,99.94,-57.82,683791
4.29,-8.46,-0.13,0.06,0.04,0.02,-27.80,100.29,-57.41,683826
3.83,-9.09,-0.05,0.01,0.11,-0.01,-27.39,99.96,-57.26,683860
3.57,-9.02,-0.20,-0.04,-0.03,-0.16,-27.95,100.18,-57.16,683894
3.24,-9.59,0.36,-0.06,0.09,-0.10,-28.08,99.93,-56.93,683928
3.14,-9.34,0.56,0.01,0.02,-0.07,-28.54,100.22,-56.88,683962
3.05,-9.46,0.29,0.05,-0.05,-0.05,-28.62,99.78,-56.62,683997
3.43,-9.16,0.11,0.04,-0.08,-0.06,-28.91,99.88,-57.25,684031
3.44,-9.10,0.25,0.04,-0.05,-0.07,-28.95,99.81,-57.13,684065
3.40,-9.16,0.17,0.08,-0.06,0.01,-28.31,100.00,-57.67,684099
3.90,-8.92,-0.02,0.08,-0.12,-0.03,-28.27,100.13,-57.51,684133
4.12,-8.87,0.25,0.04,-0.01,-0.00,-28.84,99.91,-57.32,684167
3.87,-8.99,0.27,0.02,0.02,-0.03,-28.40,100.20,-57.76,684202
3.91,-8.96,0.13,-0.02,0.01,-0.06,-28.40,100.04,-57.78,684236
3.63,-9.07,0.08,-0.04,0.06,-0.04,-28.21,99.17,-57.97,684270
3.24,-9.40,0.24,-0.02,0.08,-0.02,-27.74,99.85,-57.23,684304
3.65,-9.01,-0.01,0.00,0.00,-0.04,-28.46,99.90,-57.35,684338
3.66,-8.99,0.05,0.01,0.05,-0.02,-28.12,100.06,-57.12,684373
3.50,-9.14,0.13,0.03,0.00,-0.03,-27.89,100.16,-57.04,684407
3.66,-8.89,-0.03,0.03,-0.05,-0.09,-27.86,100.23,-57.19,684441
3.59,-9.20,0.13,0.02,0.01,-0.04,-27.95,100.09,-57.94,684475
3.59,-9.03,0.15,0.03,-0.01,-0.06,-27.86,99.75,-57.04,684509
3.66,-9.23,0.12,0.07,-0.06,-0.05,-28.34,100.31,-57.34,684543
3.95,-8.81,-0.11,0.05,-0.04,-0.08,-28.02,100.23,-57.92,684578
3.80,-9.15,0.27,0.05,0.00,-0.08,-28.56,100.29,-57.97,684612
3.93,-8.94,0.10,0.02,-0.10,-0.13,-28.97,100.10,-58.14,684646
3.60,-9.34,0.39,0.01,0.03,-0.07,-28.71,99.87,-58.11,684680
3.49,-9.01,0.22,0.03,-0.02,-0.06,-28.87,99.84,-57.67,684714
3.75,-9.27,0.21,0.04,-0.00,-0.01,-28.97,99.62,-57.60,684749
3.73,-8.93,0.21,0.03,0.01,-0.03,-28.91,99.77,-57.47,684783
3.81,-8.96,0.21,0.04,-0.05,-0.07,-29.00,99.69,-57.51,684817
3.61,-9.00,0.29,0.01,-0.03,-0.08,-29.11,99.97,-57.45,684851
3.58,-9.22,0.27,0.00,-0.02,-0.06,-28.88,99.49,-57.41,684885
3.53,-9.23,0.21,0.02,0.01,-0.01,-28.91,100.39,-57.60,684919
3.77,-8.99,0.11,0.02,-0.02,-0.02,-28.28,100.22,-57.80,684954
3.86,-8.87,0.05,0.02,-0.01,-0.02,-28.65,100.19,-57.72,684988
3.85,-8.85,-0.11,0.01,-0.04,-0.07,-28.34,100.01,-58.08,685022
3.91,-9.09,0.14,0.00,-0.00,-0.05,-28.62,99.99,-57.25,685056
3.55,-9.05,0.14,0.01,-0.06,-0.10,-28.43,99.80,-57.09,685090
3.53,-9.28,0.29,0.01,-0.04,-0.07,-29.10,100.16,-56.46,685125
3.18,-9.33,0.25,0.00,-0.04,-0.08,-28.90,99.87,-56.47,685159
3.58,-9.14,0.19,0.02,-0.01,-0.02,-29.58,99.97,-56.65,685193
3.56,-9.16,0.06,0.04,-0.03,-0.01,-28.69,100.45,-56.97,685227
4.09,-8.77,0.13,0.03,-0.02,-0.03,-28.81,100.06,-56.26,685261
3.91,-8.92,-0.22,0.02,-0.05,-0.09,-29.47,100.42,-56.96,685295
3.73,-8.93,-0.13,-0.01,0.09,-0.06,-28.62,100.04,-56.84,685330
3.33,-9.22,0.44,-0.01,0.10,-0.02,-28.59,99.93,-56.61,685364
3.66,-9.35,0.65,0.02,0.07,0.03,-27.76,99.85,-57.21,685398
3.60,-8.98,0.26,0.05,0.01,0.00,-28.03,100.38,-57.41,685432
3.83,-8.67,-0.20,0.09,-0.09,-0.03,-27.43,100.96,-57.10,685466
4.50,-8.68,-0.11,0.10,-0.10,-0.03,-27.93,100.70,-58.05,685500
4.12,-8.96,-0.28,0.05,-0.08,-0.10,-27.93,100.50,-57.60,685535
4.47,-8.66,0.03,0.03,-0.14,-0.14,-28.85,100.18,-57.12,685569
3.83,-9.07,-0.05,0.00,-0.02,-0.16,-29.19,99.99,-57.03,685603
3.42,-9.32,0.19,-0.05,0.05,-0.12,-29.95,99.74,-56.62,685637
3.58,-9.01,0.44,-0.04,0.05,-0.11,-30.71,99.66,-56.72,685671
3.62,-9.60,0.46,-0.04,0.10,-0.04,-30.33,99.39,-56.42,685706
3.29,-9.11,0.36,0.01,0.01,-0.02,-29.89,99.25,-56.53,685740
3.28,-9.04,0.06,0.04,-0.01,-0.04,-29.47,99.94,-55.74,685774
3.57,-9.03,0.17,0.02,-0.06,-0.01,-29.42,100.20,-56.40,685808
3.39,-9.14,0.03,0.03,-0.05,-0.05,-29.87,99.47,-56.80,685842
4.00,-9.19,0.13,0.04,-0.13,-0.06,-30.24,99.37,-56.49,685876
3.70,-8.86,0.02,0.04,-0.08,-0.09,-29.98,99.69,-55.42,685911
4.01,-9.16,0.22,0.05,-0.05,-0.01,-29.61,100.15,-56.85,685945
3.90,-8.84,0.01,0.04,-0.06,-0.04,-29.89,99.53,-56.97,685979
4.35,-8.79,-0.09,0.02,-0.01,-0.00,-29.30,99.37,-56.26,686013
3.80,-8.91,0.06,0.01,0.03,-0.02,-29.19,100.07,-56.05,686047
3.78,-8.86,-0.07,-0.01,0.01,-0.05,-28.90,100.07,-56.55,686082
3.52,-9.01,-0.20,-0.01,0.02,-0.07,-28.46,99.91,-56.18,686116
3.68,-9.35,0.11,0.00,0.02,-0.04,-28.92,100.38,-55.80,686150
3.69,-8.92,0.14,0.02,-0.01,-0.06,-28.79,99.96,-55.61,686184
3.92,-9.03,0.18,0.05,-0.05,-0.03,-28.85,100.39,-56.47,686218
3.71,-8.87,0.04,0.05,-0.06,-0.05,-28.92,100.29,-55.89,686252
3.95,-8.80,-0.05,0.05,-0.07,-0.09,-29.16,100.50,-55.77,686287
3.83,-9.21,-0.19,0.06,-0.10,-0.09,-29.23,99.85,-56.24,686321
3.81,-8.94,-0.20,0.06,-0.08,-0.12,-29.92,99.99,-56.65,686355
3.43,-9.47,0.28,0.03,-0.02,-0.07,-29.41,100.04,-56.39,686389
4.00,-9.04,0.46,0.07,-0.10,-0.03,-29.57,100.22,-56.55,686423
4.12,-8.98,0.10,0.06,-0.06,0.01,-29.33,99.78,-55.79,686458
3.88,-8.86,0.04,0.04,-0.01,0.02,-29.19,100.22,-55.86,686492
3.82,-8.79,-0.14,0.03,-0.04,-0.04,-28.71,100.29,-55.69,686526
3.88,-8.85,-0.10,0.04,-0.03,-0.03,-28.76,100.20,-56.46,686560
3.91,-9.10,-0.03,0.02,-0.01,-0.06,-28.91,99.90,-55.93,686594
3.88,-8.95,0.04,0.03,-0.04,-0.06,-28.98,99.23,-57.21,686628
3.94,-8.90,0.13,0.04,-0.04,-0.04,-28.87,100.00,-55.93,686663
3.70,-9.00,0.06,0.04,-0.03,-0.02,-28.65,100.34,-56.71,686697
3.82,-8.90,0.08,0.03,-0.01,-0.04,-28.81,99.97,-56.34,686731
3.66,-9.16,0.12,0.06,-0.06,-0.01,-29.38,100.12,-56.55,686765
3.89,-8.91,0.00,0.06,-0.07,-0.05,-28.41,99.93,-56.71,686799
3.80,-9.13,0.13,0.06,-0.04,-0.01,-28.63,100.15,-56.53,686833
3.61,-8.94,0.22,0.06,-0.08,-0.03,-28.14,99.85,-56.43,686868
3.96,-9.14,0.20,0.07,-0.08,0.01,-28.25,100.12,-56.43,686902
3.46,-9.05,0.01,0.04,-0.05,-0.03,-28.34,100.06,-56.81,686936
3.72,-9.06,0.00,0.06,-0.09,-0.03,-28.57,99.96,-56.90,686970
3.47,-9.11,0.05,0.07,-0.03,0.00,-28.19,100.00,-56.90,687004
3.82,-9.11,0.22,0.09,-0.08,0.02,-28.31,100.22,-57.44,687039
3.69,-9.10,0.22,0.08,-0.05,0.03,-27.24,100.39,-57.47,687073
3.62,-8.94,0.19,0.08,-0.11,0.03,-27.52,100.37,-57.57,687107
3.65,-9.29,0.06,0.09,-0.04,0.07,-26.92,100.31,-57.56,687141
4.10,-8.89,0.32,0.13,-0.19,0.05,-26.85,100.29,-57.88,687175
4.07,-8.91,0.24,0.17,-0.11,0.05,-26.59,99.63,-58.39,687209
3.41,-10.26,-0.36,0.20,-0.27,0.02,-26.60,99.55,-59.50,687244
3.77,-8.04,-0.97,0.11,-0.51,-0.27,-27.67,99.55,-59.00,687278
5.01,-9.32,0.03,-0.05,0.20,-0.03,-27.92,99.91,-58.77,687312
3.68,-9.14,0.01,-0.01,-0.05,-0.14,-28.25,99.84,-58.81,687346
4.67,-8.68,0.15,-0.06,-0.05,-0.13,-29.07,99.88,-58.46,687380
4.39,-8.35,-0.70,-0.06,-0.10,-0.23,-29.67,99.47,-57.60,687415
4.42,-8.35,-0.58,-0.11,-0.18,-0.34,-30.82,99.55,-57.25,687449
4.45,-9.05,-0.11,-0.14,-0.09,-0.31,-32.86,99.52,-55.61,687483
4.96,-8.78,-0.51,-0.19,-0.07,-0.37,-34.52,99.08,-55.28,687517
2.60,-10.49,0.43,-0.16,-0.05,-0.31,-35.81,99.12,-54.34,687551
3.35,-9.00,0.77,-0.08,0.00,-0.22,-36.71,99.05,-53.51,687585
2.99,-9.88,0.11,-0.02,0.14,-0.04,-36.47,98.51,-54.44,687620
3.23,-9.47,0.22,0.06,0.02,0.05,-36.35,98.48,-53.79,687654
2.97,-9.10,-0.03,0.07,-0.05,0.07,-35.40,98.49,-53.54,687688
3.35,-9.35,-0.06,0.06,0.05,0.11,-35.21,98.95,-53.93,687722
3.68,-8.82,0.40,0.13,-0.16,0.06,-34.64,98.28,-54.08,687756
4.32,-8.62,-0.20,0.13,-0.19,0.01,-34.51,98.54,-54.57,687791
3.96,-8.92,-0.17,0.07,-0.08,0.01,-34.14,98.41,-54.12,687825
3.81,-9.07,0.08,0.07,-0.09,0.01,-34.08,98.71,-54.37,687859
4.15,-8.95,0.02,0.05,-0.14,-0.04,-33.98,99.47,-54.85,687893
3.52,-9.08,0.03,0.06,0.00,0.08,-33.31,99.28,-55.14,687927
4.05,-8.73,-0.16,0.09,-0.11,0.05,-32.99,98.98,-55.31,687961
4.02,-8.56,-0.45,0.11,-0.15,0.05,-32.70,99.09,-55.41,687996
4.62,-8.40,-0.41,0.11,-0.11,0.03,-32.65,99.55,-55.54,688030
4.72,-8.32,-0.60,0.11,-0.04,-0.04,-32.14,99.77,-55.60,688064
4.19,-9.26,-0.76,-0.03,-0.04,-0.12,-32.29,99.06,-56.40,688098
4.38,-8.56,-0.40,-0.06,-0.05,-0.17,-32.96,99.09,-55.79,688132
3.78,-8.87,-0.15,-0.05,0.09,-0.18,-33.29,99.08,-55.55,688166
3.77,-9.43,-0.14,-0.07,0.04,-0.18,-34.07,99.11,-54.62,688201
3.52,-9.55,-0.25,-0.05,0.13,-0.10,-34.80,99.17,-54.49,688235
3.13,-9.87,0.32,0.00,0.20,-0.00,-34.45,99.24,-55.35,688269
3.47,-9.08,0.24,0.07,-0.03,0.31,-34.30,98.82,-54.27,688303
3.58,-9.07,0.06,0.11,-0.06,0.06,-33.63,98.76,-54.81,688337
3.86,-8.67,-0.13,0.11,-0.05,0.04,-33.12,98.95,-54.76,688372
3.83,-8.84,-0.15,0.12,-0.10,0.03,-32.78,99.30,-55.90,688406
4.31,-8.96,-0.26,0.06,-0.16,-0.05,-33.19,98.77,-55.89,688440
3.97,-9.01,0.14,0.06,0.02,-0.00,-32.49,99.62,-56.53,688474
3.70,-9.12,0.00,0.04,-0.04,-0.03,-32.70,99.56,-57.13,688508
4.08,-8.81,-0.05,0.04,-0.04,-0.04,-32.45,100.09,-56.65,688542
3.69,-9.01,-0.05,0.01,0.04,-0.02,-32.56,99.88,-56.47,688577
3.78,-8.94,-0.15,0.02,0.00,-0.02,-32.91,99.71,-56.66,688611
3.90,-8.95,-0.13,0.04,-0.01,-0.01,-32.36,99.37,-56.39,688645
3.91,-8.82,-0.13,0.04,0.01,0.00,-32.17,99.46,-56.15,688679
3.94,-8.90,-0.09,0.04,0.03,0.00,-32.07,99.75,-55.85,688713
3.82,-9.10,-0.09,0.05,0.01,0.02,-32.02,99.21,-56.36,688748
4.01,-8.88,-0.16,0.02,-0.02,-0.04,-31.75,99.43,-56.09,688782
3.60,-9.20,0.08,0.04,0.02,0.01,-32.11,99.34,-57.37,688816
3.74,-9.02,-0.02,0.05,-0.03,0.01,-31.69,99.50,-56.21,688850
3.73,-9.04,-0.05,0.06,-0.04,0.02,-31.09,99.17,-56.46,688884
3.91,-8.97,-0.08,0.06,-0.05,0.00,-30.88,99.52,-56.91,688918
3.90,-9.00,-0.14,0.08,-0.14,-0.03,-30.78,99.31,-56.53,688953
3.79,-9.34,-0.09,0.07,-0.16,-0.04,-30.84,99.80,-56.80,688987
3.58,-9.09,0.09,0.08,-0.09,0.01,-31.23,99.42,-57.06,689021
2.95,-9.56,0.15,0.11,-0.07,0.08,-30.77,98.89,-57.47,689055
3.78,-9.01,0.13,0.13,-0.12,0.08,-30.75,98.61,-56.84,689089
3.43,-9.05,0.08,0.11,-0.01,0.09,-29.86,99.24,-57.70,689124
3.73,-8.68,-0.05,0.07,-0.08,0.02,-29.47,99.01,-57.38,689158
3.50,-8.90,-0.27,0.08,-0.05,-0.00,-29.03,99.02,-56.84,689192
3.29,-9.39,0.11,0.05,0.03,0.01,-28.94,98.93,-57.25,689226
3.35,-8.85,0.04,0.03,-0.06,-0.10,-29.22,98.73,-58.07,689260
3.03,-9.51,0.32,0.03,-0.00,-0.03,-29.04,98.99,-58.18,689294
3.47,-9.15,0.28,0.04,-0.08,-0.06,-29.16,99.20,-57.15,689329
2.87,-9.43,0.09,0.03,-0.05,-0.11,-29.32,99.12,-57.10,689363
3.41,-9.20,0.14,0.04,-0.07,-0.05,-29.58,99.27,-57.92,689397
3.38,-9.25,0.25,0.09,-0.00,0.02,-29.49,98.49,-57.95,689431
4.21,-8.91,-0.12,0.09,-0.11,-0.02,-28.98,99.04,-58.83,689465
4.05,-8.76,-0.14,0.08,-0.04,-0.02,-28.88,99.02,-58.35,689500
4.04,-8.69,-0.04,0.07,-0.00,-0.02,-28.71,98.63,-58.54,689534
3.95,-9.02,-0.33,-0.00,-0.07,-0.13,-28.66,98.98,-58.94,689568
3.75,-9.18,0.22,-0.03,0.08,-0.06,-29.10,98.96,-57.64,689602
3.10,-9.43,0.52,0.00,0.08,-0.05,-28.94,98.99,-57.69,689636
3.55,-9.31,0.24,0.02,-0.02,-0.03,-29.30,98.95,-58.18,689670
3.31,-9.15,0.13,0.04,0.02,-0.01,-29.16,98.95,-58.74,689705
3.22,-9.15,0.18,0.03,-0.00,-0.00,-29.03,99.44,-58.20,689739
3.56,-8.99,0.10,0.01,-0.00,-0.03,-28.56,99.12,-57.92,689773
3.24,-9.24,0.16,0.01,0.00,-0.03,-28.75,99.12,-57.28,689807
3.45,-9.19,0.11,0.03,-0.03,-0.03,-28.71,98.95,-57.53,689841
3.52,-9.07,0.03,0.02,-0.05,-0.06,-28.50,98.86,-57.79,689875
3.48,-9.14,0.02,0.03,-0.04,-0.05,-28.72,98.98,-57.41,689910
3.63,-9.11,0.10,0.04,-0.02,-0.02,-28.72,98.99,-57.37,689944
3.65,-9.10,0.11,0.05,-0.00,0.00,-28.46,99.12,-58.58,689978
3.51,-9.10,0.04,0.06,0.01,0.01,-28.50,99.09,-58.16,690012
3.68,-9.04,-0.07,0.06,0.01,0.03,-28.28,98.96,-58.16,690046
3.47,-9.11,0.06,0.05,0.03,0.02,-27.48,98.80,-58.42,690081
3.50,-9.17,0.16,0.06,-0.00,0.01,-27.39,99.14,-58.71,690115
3.53,-9.07,0.13,0.08,0.00,0.01,-27.00,98.63,-58.96,690149
3.57,-9.20,0.15,0.09,-0.02,0.01,-27.02,98.68,-58.62,690183
3.42,-9.25,0.27,0.06,-0.02,-0.01,-27.58,99.04,-58.94,690217
3.28,-9.23,0.34,0.04,0.03,-0.01,-27.21,99.01,-58.71,690251
3.44,-9.34,0.38,0.03,0.05,0.00,-27.05,98.33,-58.80,690286
3.16,-9.38,0.42,0.01,0.07,-0.01,-26.54,98.48,-58.35,690320
3.12,-9.30,0.31,0.01,0.04,-0.02,-26.09,98.66,-58.83,690354
3.00,-9.34,0.26,-0.00,0.01,-0.03,-26.24,98.76,-57.94,690388
2.94,-9.35,0.25,0.02,-0.04,-0.04,-26.21,98.99,-58.77,690422
3.05,-9.34,0.26,0.03,-0.05,-0.04,-26.47,98.83,-58.97,690457
3.19,-9.26,0.33,0.03,-0.04,-0.04,-25.83,98.67,-58.18,690491
3.11,-9.29,0.22,0.03,-0.07,-0.04,-25.90,98.52,-57.44,690525
3.41,-9.24,0.22,0.03,-0.05,-0.03,-26.07,98.89,-58.70,690559
3.35,-9.14,0.12,0.03,-0.01,-0.03,-25.93,99.09,-58.27,690593
3.80,-9.03,-0.03,0.03,-0.01,-0.02,-25.56,98.67,-57.28,690627
3.61,-9.07,-0.05,0.03,0.05,-0.03,-25.75,98.68,-57.73,690662
3.58,-9.04,0.21,0.01,0.02,-0.08,-25.59,99.01,-57.04,690696
3.34,-9.07,0.15,-0.02,0.03,-0.09,-26.13,99.49,-58.10,690730
3.27,-9.37,0.11,-0.01,-0.07,-0.10,-26.31,98.87,-57.76,690764
3.22,-9.41,0.29,0.02,-0.00,-0.05,-26.53,98.36,-57.89,690798
3.15,-9.37,0.29,0.04,-0.01,-0.01,-26.56,99.09,-58.01,690833
3.14,-9.26,0.20,0.07,-0.06,-0.00,-25.62,99.37,-57.66,690867
3.39,-9.04,-0.03,0.05,-0.07,-0.04,-25.72,98.58,-58.37,690901
3.44,-9.11,0.14,0.03,-0.02,-0.05,-26.02,99.09,-58.52,690935
3.60,-9.11,0.33,0.04,-0.05,-0.09,-26.35,98.95,-57.57,690969
3.46,-9.16,0.13,0.00,-0.06,-0.09,-26.44,99.20,-58.35,691003
3.52,-9.24,0.18,0.00,0.00,-0.04,-26.45,98.99,-57.70,691038
3.16,-9.19,0.23,0.01,0.04,-0.03,-26.24,98.80,-57.44,691072
2.76,-9.31,0.27,0.05,-0.02,-0.01,-26.41,98.76,-57.31,691106
3.29,-9.18,0.23,0.04,-0.00,-0.02,-25.81,99.14,-57.76,691140
3.29,-9.27,0.18,0.01,-0.02,-0.06,-26.10,99.08,-57.67,691174
3.27,-9.23,0.18,0.02,-0.04,-0.06,-26.15,98.68,-57.69,691208
3.05,-9.38,0.25,0.02,-0.03,-0.07,-26.57,98.49,-57.37,691243
3.39,-9.20,0.23,0.04,-0.04,-0.04,-26.41,98.58,-56.84,691277
3.34,-9.15,0.19,0.04,-0.01,-0.04,-25.87,99.27,-57.37,691311
3.32,-9.07,0.14,0.03,-0.02,-0.05,-25.94,98.79,-57.83,691345
3.34,-9.26,0.14,0.01,-0.03,-0.07,-25.72,98.49,-58.33,691379
