ax,ay,az,gx,gy,gz,mx,my,mz,timestamp
0.24,9.60,-1.33,-0.06,0.16,-0.02,-11.75,-19.32,35.49,46625
-1.10,10.19,-2.27,-0.01,-0.32,-0.67,-9.53,-20.87,35.62,46758
-0.41,9.66,-1.95,-0.04,-1.16,-1.12,0.85,-20.14,36.58,46892
-1.91,9.28,-1.24,0.02,-0.03,-1.05,4.82,-18.63,35.09,47026
-3.01,9.16,-1.73,-0.18,0.15,-0.42,6.66,-17.55,35.68,47160
-5.98,7.86,-0.95,-0.11,0.01,-0.39,8.10,-17.09,34.90,47293
-3.58,10.00,-1.83,-0.15,-0.95,-0.79,10.65,-15.11,33.89,47427
-10.17,9.67,-3.57,0.31,-2.36,-0.20,19.96,-10.01,30.85,47561
-1.31,4.51,-2.16,-1.97,5.06,-1.52,6.94,-6.91,31.79,47695
-4.36,8.06,2.30,-1.14,3.95,2.09,-13.99,-11.60,25.59,47829
-17.89,-4.99,-4.97,0.02,-0.95,-2.15,-16.72,-18.43,21.08,47962
-5.11,8.83,-2.56,-0.05,-0.14,-0.43,-12.47,-23.40,23.15,48096
-2.74,8.15,-5.74,-0.41,0.17,0.14,-9.65,-30.37,22.24,48230
-1.86,8.19,-2.33,0.00,0.23,0.12,-10.07,-38.50,22.03,48364
-5.20,8.73,-1.63,-0.24,0.17,0.38,-13.87,-47.95,21.84,48498
-3.40,7.84,-5.49,-1.27,1.12,-0.68,-22.68,-57.78,13.27,48631
-10.64,4.18,-2.94,0.29,-0.04,0.28,-29.99,-61.25,4.91,48765
2.18,19.44,1.35,-0.04,-2.79,3.47,-42.09,-46.10,14.83,48899
-37.42,-39.20,-14.42,5.33,-4.59,0.59,5.44,8.49,38.13,49033
-2.86,16.13,-3.25,0.70,-1.09,1.00,20.94,19.58,15.99,49166
14.61,21.51,-17.80,-4.04,8.67,-8.83,4.52,14.98,18.09,49300
-38.54,19.47,-22.93,5.50,2.59,-6.38,-14.15,6.28,6.56,49434
-4.78,5.84,-6.64,-1.94,1.85,-0.20,0.89,-20.34,18.68,49568
-4.84,10.56,0.44,-0.46,0.87,-0.43,-3.27,-48.33,14.59,49702
-6.53,5.55,-6.87,0.17,-0.37,-0.54,-0.94,-61.91,9.76,49835
3.79,24.39,15.54,-2.49,-1.22,3.88,-29.36,-63.20,8.30,49969
-8.06,6.12,4.68,4.44,-6.90,1.56,-9.43,-8.86,51.87,50103
-9.16,0.88,-13.81,0.60,0.80,-4.46,2.86,4.69,50.42,50237
9.03,31.24,-39.16,-0.70,0.74,1.60,7.91,16.91,38.98,50371
12.35,-30.78,8.62,-7.19,5.03,6.17,-34.13,-2.95,24.10,50504
-4.22,-1.48,-11.47,-2.48,0.46,0.44,-29.09,11.25,9.08,50638
-0.92,10.09,-2.77,-0.38,-2.00,-0.16,-23.71,8.08,10.51,50772
0.60,8.01,-1.15,-0.19,-0.51,-0.06,-19.70,8.11,13.01,50906
-5.87,3.55,-8.59,-0.61,-0.64,-0.96,-16.94,7.45,14.70,51040
-5.74,4.17,-8.09,-3.03,-3.71,0.32,-14.22,1.81,12.10,51173
0.42,37.82,-14.86,0.81,2.78,6.17,-9.11,-10.27,7.10,51307
-4.73,10.98,1.00,-1.13,0.61,-0.59,-1.89,-22.86,10.90,51441
-10.66,2.84,-5.53,-0.27,0.72,0.09,-3.03,-36.92,7.92,51575
-1.88,6.79,-8.40,0.79,-0.52,0.20,0.53,-38.99,11.33,51708
8.86,13.20,-14.85,3.09,-1.00,10.78,-18.30,-26.24,21.08,51842
-3.09,9.40,11.10,1.88,-4.40,0.63,10.27,1.30,27.11,51976
-10.16,3.88,-8.56,-1.84,0.02,-0.63,11.63,1.39,24.79,52110
-14.78,-0.18,-9.07,0.21,-0.45,0.16,15.20,0.80,23.82,52244
6.67,13.76,-8.62,-6.61,0.21,-7.37,11.05,0.63,25.61,52377
-32.87,31.06,6.89,6.66,-2.06,-3.36,-30.14,-18.90,16.03,52511
-7.31,7.00,-1.10,-2.38,0.91,-1.79,-31.28,-18.66,14.94,52645
-2.93,2.38,-10.05,-1.04,0.90,-0.21,-33.16,-31.26,8.16,52779
-2.30,7.36,-4.56,0.43,-1.18,1.78,-37.47,-28.46,16.44,52913
-6.74,8.09,-3.61,-0.28,-3.88,1.34,-24.76,-9.76,40.16,53046
-2.96,7.16,-3.38,-0.05,-0.64,-0.36,-13.12,-15.49,47.24,53180
-2.89,8.71,-3.27,-0.82,0.37,-0.68,-9.30,-24.54,49.96,53314
-3.44,7.84,-6.08,-1.91,1.62,-1.14,-18.56,-41.36,45.91,53448
-5.74,8.54,-4.60,0.11,-0.32,0.19,-28.84,-53.73,36.51,53582
-19.90,-14.11,-39.16,4.12,-7.48,6.77,-40.65,-8.49,50.54,53715
22.85,39.16,6.88,5.81,-1.40,1.84,19.22,50.39,22.58,53849
-19.20,5.17,-6.12,0.62,-0.69,0.27,9.79,54.02,15.42,53983
10.72,7.64,-12.77,-11.57,-3.40,-10.09,-12.88,41.74,20.64,54117
-24.85,-23.72,-22.07,-1.97,2.56,-0.96,-49.08,12.63,-3.84,54250
7.68,6.47,-9.97,-0.10,-0.19,1.41,-35.15,21.66,-5.29,54384
3.77,19.75,-7.32,-0.16,0.38,0.82,-26.47,22.43,5.01,54518
-1.30,5.04,-9.05,-1.09,0.63,-0.34,-29.66,10.25,11.28,54652
-1.72,8.77,-6.59,-1.21,1.18,-0.91,-34.13,-9.06,15.24,54786
-4.41,8.31,-6.50,-0.83,1.18,-0.42,-39.26,-24.73,8.65,54919
-1.84,10.60,-6.84,0.68,-0.13,1.05,-41.32,-28.35,10.79,55053
-10.58,-6.30,-15.13,2.62,-12.78,8.59,-31.26,13.05,34.89,55187
1.09,22.63,11.03,-2.25,0.24,-1.46,21.10,57.00,8.93,55321
-8.90,13.75,5.46,-1.22,-0.41,-2.27,0.80,60.48,6.72,55455
-9.60,19.10,-8.46,0.44,0.31,-0.08,-8.77,56.07,-1.24,55588
23.43,4.55,-0.64,-5.73,10.27,-2.06,-41.89,31.23,3.64,55722
-18.99,-1.64,39.20,-10.81,-8.49,-5.50,-49.49,19.57,-22.41,55856
-9.94,4.68,-3.79,-2.31,0.02,0.37,-41.08,21.47,-14.10,55990
-2.22,7.95,-7.17,-0.28,-0.63,-0.10,-37.97,17.92,-4.59,56124
-1.67,9.76,-4.13,-0.66,-0.36,-0.12,-34.32,14.43,2.27,56257
-6.95,3.98,-7.00,-1.35,1.09,-0.55,-36.47,3.70,4.50,56391
-3.21,8.14,-4.06,-1.08,1.17,-0.57,-40.02,-4.41,3.71,56525
-8.94,4.31,-3.11,-0.12,0.15,-0.33,-45.19,-10.17,-1.55,56659
8.60,14.87,-5.91,5.02,-2.54,1.89,-44.36,0.16,5.38,56792
-16.57,20.74,-7.40,9.37,-8.21,1.18,1.87,39.54,4.03,56926
-0.23,10.50,-19.38,-0.80,1.35,-0.27,1.26,42.81,5.82,57060
-5.05,10.65,-1.90,0.93,-0.42,1.71,5.67,42.63,7.04,57194
10.69,9.54,-9.24,-5.29,12.80,-6.81,-22.41,29.35,20.21,57328
-39.20,39.16,-26.95,-1.11,3.69,0.09,-39.29,23.37,9.78,57461
-1.08,10.86,0.20,-1.71,-0.79,1.60,-26.82,18.82,18.44,57595
-9.29,19.00,-29.62,-2.17,3.95,0.47,-16.28,9.56,24.50,57729
-10.57,0.47,-10.28,5.81,-4.11,4.08,-17.70,16.24,20.23,57863
3.44,17.77,-3.34,2.48,-7.13,1.08,19.70,32.04,-7.91,57997
-8.17,-7.43,9.08,-2.88,-2.15,-2.60,4.34,42.03,2.78,58130
-11.12,-0.93,-7.77,0.65,-1.96,-0.90,-5.03,45.37,5.01,58264
10.22,-12.58,18.33,-10.72,-3.32,-9.70,-23.03,39.45,8.65,58398
-32.25,-31.86,-33.05,-0.06,2.98,-2.05,-45.95,32.27,-16.72,58532
-9.56,9.90,-2.68,-1.97,-0.64,0.78,-30.85,42.96,-8.87,58666
-6.87,4.69,-7.47,0.11,-0.44,-0.32,-23.02,43.31,-4.22,58799
-4.00,9.10,-4.08,-0.89,-0.68,-0.63,-24.51,40.92,2.16,58933
-5.08,6.14,-4.22,-0.46,-0.15,-0.52,-24.33,37.99,7.04,59067
-3.97,6.67,-5.24,-0.08,-0.45,-0.34,-24.25,36.51,8.24,59201
-4.80,19.54,1.08,0.79,-0.20,2.71,-13.72,39.93,5.55,59334
-4.42,-4.93,-3.06,-1.17,-3.03,-1.63,22.86,27.14,-26.50,59468
-9.48,23.89,26.37,-3.19,3.34,-3.35,25.75,17.33,-30.34,59602
-2.89,5.86,-0.25,-4.36,0.52,-3.34,25.78,24.54,-21.43,59736
-2.92,10.68,-3.33,-0.07,0.48,-0.15,15.17,35.91,-13.04,59870
-5.17,0.80,-8.45,0.04,-2.02,-0.60,8.01,39.01,-13.81,60003
-7.85,8.62,-4.99,1.86,-1.73,1.11,1.20,35.94,-24.16,60137
16.63,-26.67,-25.28,-5.09,4.46,-5.09,-7.15,31.63,-13.46,60271
-16.96,11.51,-16.07,-0.45,4.94,-0.71,-29.45,24.60,-2.65,60405
-9.22,10.03,5.93,-3.60,1.32,-0.27,-28.69,29.32,-2.72,60539
-10.65,3.99,-6.41,0.96,-1.67,-0.64,-27.71,25.33,2.25,60672
0.01,21.74,1.45,-0.50,-1.06,2.69,-20.62,27.19,4.75,60806
-6.45,-14.42,-1.48,-0.08,-1.87,1.14,9.82,24.48,5.88,60940
37.20,33.83,-15.79,-1.98,4.36,5.07,20.42,24.92,-13.48,61074
-7.69,6.23,-4.72,0.66,-1.10,-0.64,5.73,33.06,-14.50,61208
-1.57,28.68,-18.92,-2.59,-0.30,-5.24,-0.19,33.56,-13.36,61341
-2.46,3.44,-6.59,-3.87,9.78,0.36,-20.67,26.34,0.99,61475
-16.70,16.84,-9.31,2.34,-1.41,1.09,-13.45,29.39,2.10,61609
-0.50,8.41,-5.98,0.01,-0.21,0.90,-5.13,26.75,7.60,61743
-3.16,4.54,-7.86,-0.22,-0.32,0.61,4.69,19.39,13.56,61876
-7.44,5.33,-7.45,0.03,-0.98,-0.20,8.33,12.19,16.28,62010
1.02,10.23,-7.14,-0.81,0.14,0.67,12.28,8.40,17.26,62144
10.57,4.60,-23.40,-4.56,11.56,-4.50,-19.89,-11.85,17.39,62278
-5.13,5.20,-5.24,1.20,-1.19,-0.53,-36.54,-21.31,8.86,62412
-3.19,10.23,-3.18,-2.05,1.54,-0.25,-45.00,-19.63,5.32,62545
-1.88,4.60,-13.58,-2.64,4.92,-1.57,-52.06,-17.83,-24.22,62679
-7.25,8.54,-3.59,0.45,1.61,-0.23,-42.01,-16.28,-43.44,62813
-1.98,8.80,-3.65,0.16,-0.74,0.58,-42.30,-13.87,-36.04,62947
-3.77,6.74,-4.94,-0.35,-0.29,-0.89,-44.34,-13.45,-27.78,63081
3.93,10.99,-5.61,-1.51,1.81,-0.71,-46.77,-14.10,-29.22,63214
-2.56,7.27,-15.18,-2.83,5.57,-1.19,-39.02,-5.90,-50.79,63348
-11.01,3.32,-7.57,-0.49,2.42,-0.25,-13.17,9.40,-66.94,63482
-7.52,6.73,-3.04,-0.05,-0.02,-0.61,-8.80,13.68,-67.11,63616
-2.25,8.92,-4.90,0.87,-0.27,0.14,-10.84,13.08,-67.44,63750
-2.37,9.61,-3.38,-0.06,-0.14,0.07,-11.56,13.24,-67.48,63883
9.55,10.18,-11.86,-2.70,6.94,-2.28,6.83,23.17,-60.89,64017
-2.35,6.06,-4.62,-0.05,0.61,-0.90,24.19,35.34,-43.42,64151
-5.97,5.79,-7.38,0.82,-0.87,0.05,26.26,32.51,-46.24,64285
-3.55,9.11,-2.52,0.14,-1.09,-0.54,20.74,28.19,-55.07,64418
-2.60,9.25,-6.53,-0.83,1.69,1.29,25.46,27.61,-49.33,64552
-0.38,6.18,-12.73,-2.37,6.14,-2.59,33.40,33.92,-13.18,64686
0.51,11.56,-2.99,-1.37,0.87,-0.88,20.78,35.84,4.74,64820
-7.59,3.45,-7.85,-1.58,3.48,-1.52,5.79,25.46,20.39,64954
-1.75,10.42,-3.26,1.41,-0.45,0.14,5.69,26.37,19.83,65087
-12.74,0.85,-3.20,4.04,-6.14,6.96,32.04,19.26,2.63,65221
-7.71,3.76,-10.14,-2.09,-0.09,-1.16,39.52,5.41,-16.35,65355
-2.66,8.25,-2.54,-0.31,-0.20,-1.07,35.82,11.52,-14.59,65489
-2.04,9.83,-1.88,0.04,-0.10,-0.22,33.95,12.66,-16.50,65623
-2.34,9.65,-3.58,0.23,-0.20,0.35,32.67,11.17,-18.39,65756
-3.65,7.56,-2.73,0.26,-0.28,0.57,31.13,7.22,-20.26,65890
-4.57,7.73,-2.18,0.67,-1.05,0.61,28.88,4.21,-25.11,66024
-6.93,9.93,-0.23,1.34,-2.22,2.85,25.30,-2.84,-34.01,66158
-9.15,5.35,-7.63,0.12,-1.07,-1.13,13.11,-11.15,-47.06,66291
0.82,10.98,-3.33,-0.12,-0.29,0.75,8.99,-7.50,-50.25,66425
-4.31,7.24,-1.35,-0.17,-0.46,-0.37,5.48,-5.89,-53.32,66559
-2.83,8.46,-5.18,-0.79,1.05,-0.64,7.59,0.88,-51.49,66693
-4.41,9.24,-0.40,0.43,-0.78,2.00,11.43,2.78,-49.84,66827
-6.43,8.77,-4.55,0.79,-1.87,0.59,-2.56,-5.17,-54.06,66960
-5.21,8.14,-3.82,-0.20,-0.92,-0.59,-9.46,-4.34,-53.38,67094
-5.54,8.41,-2.72,-0.11,-0.06,-0.70,-11.71,-2.85,-53.24,67228
-2.14,9.90,-2.96,-0.54,0.58,-1.33,-11.30,-1.91,-52.37,67362
-1.99,10.82,-2.58,-1.81,1.75,-1.06,-6.21,5.77,-50.94,67496
-9.14,0.54,-13.34,-2.21,3.83,-0.84,6.71,18.85,-39.81,67629
-6.02,4.57,-7.41,-0.14,-0.09,-1.99,8.16,24.80,-31.98,67763
-8.20,8.59,-4.20,0.97,-0.74,0.20,3.20,26.13,-33.88,67897
1.95,-1.65,-19.33,5.03,-6.40,5.95,5.74,12.48,-47.85,68031
2.23,17.53,11.99,0.55,-1.41,-0.29,-28.25,-7.40,-51.17,68165
-7.41,9.49,2.97,-0.54,-0.61,-1.03,-34.16,-13.59,-48.28,68298
-10.40,7.24,-7.90,0.64,-0.92,0.48,-35.18,-21.02,-41.71,68432
34.80,12.27,39.20,-18.13,3.38,2.32,-17.76,-20.68,-50.83,68566
39.16,-14.37,-39.16,5.89,5.73,15.59,22.04,-14.69,-43.20,68700
-8.26,11.40,3.41,-0.61,-0.31,3.79,7.82,-11.96,-52.69,68833
-4.03,6.54,-5.21,-0.38,-1.89,-1.21,-7.88,-1.49,-59.03,68967
-3.92,8.83,-2.20,-1.08,-0.03,-0.85,-11.94,5.42,-58.89,69101
0.47,10.25,-3.42,-2.28,1.73,-1.11,-8.61,20.86,-57.26,69235
-5.16,9.25,0.39,0.61,-0.18,-0.48,-2.89,36.26,-48.33,69369
-8.92,0.84,-20.81,4.33,-3.25,2.20,11.62,28.02,-57.15,69502
6.67,39.16,34.36,1.20,-1.61,5.34,-31.42,-2.73,-67.14,69636
-10.94,18.37,6.75,-2.84,1.56,0.18,-31.77,-1.07,-68.93,69770
1.74,-0.15,-10.92,0.88,1.31,-0.49,8.55,22.03,-64.91,69904
-3.72,2.84,-11.16,-1.00,-0.81,0.35,4.56,13.52,-67.17,70038
0.20,17.37,-18.64,-3.25,5.27,0.90,17.54,27.39,-42.12,70171
-1.70,3.95,-2.93,2.56,-4.00,3.55,16.47,24.54,-44.59,70305
-2.99,6.09,-2.23,2.35,-1.31,1.06,14.06,6.55,-62.01,70439
-3.74,9.45,-4.60,1.83,-1.41,-1.20,5.16,-7.80,-68.77,70573
-1.12,13.97,1.24,-2.07,5.31,-4.96,19.32,-3.87,-63.26,70707
8.26,17.27,1.91,1.21,-1.07,0.88,31.16,13.86,-50.42,70840
-4.73,6.97,-4.63,-0.99,-0.10,-0.00,33.98,12.88,-41.52,70974
-3.45,8.23,-3.58,-0.11,-1.19,-0.12,30.93,11.34,-43.35,71108
-0.61,10.47,-1.51,-0.78,-0.35,-0.98,22.49,11.47,-44.33,71242
-4.15,6.23,-5.12,-1.66,1.57,-1.02,14.95,23.95,-33.89,71375
2.23,20.23,3.93,0.04,0.72,3.10,19.23,30.90,-33.76,71509
-13.28,7.37,-7.59,8.66,-8.72,-0.16,3.84,5.17,-70.96,71643
3.43,17.05,-4.86,0.17,-0.65,0.86,-20.86,-10.61,-76.28,71777
1.07,10.53,-39.16,-0.81,5.31,-5.40,-7.04,8.83,-75.69,71911
0.82,29.75,1.00,1.88,-4.91,5.26,7.38,11.65,-79.06,72044
-4.92,15.20,-5.57,-5.62,3.39,-0.35,13.86,26.38,-69.37,72178
-5.79,4.30,-7.59,0.23,-0.68,0.97,33.25,27.74,-43.85,72312
-2.85,7.15,-3.62,2.85,-2.06,2.88,26.07,3.43,-54.55,72446
-3.38,10.62,-2.28,1.65,0.92,-0.43,25.50,-7.91,-55.67,72580
-4.14,11.45,-1.84,1.48,0.79,-2.34,38.80,-12.47,-58.49,72713
-0.30,10.70,-2.90,0.64,1.37,-1.88,54.41,-17.68,-48.00,72847
-1.11,10.01,-2.36,0.43,0.24,-0.82,64.41,-15.29,-26.60,72981
9.85,12.26,-4.32,-1.18,0.57,-1.98,69.63,-14.26,-17.06,73115
-4.32,7.69,-4.91,-0.76,-0.46,0.02,67.95,-33.05,-5.96,73249
-3.72,8.73,-2.36,-0.01,-0.57,-0.45,60.07,-39.92,-6.17,73382
-2.67,8.08,-4.00,-0.41,-0.34,-0.74,52.79,-38.88,-9.91,73516
-3.87,8.80,-2.40,-0.29,-0.35,-0.62,47.43,-33.89,-14.24,73650
-2.59,8.93,-1.86,-0.22,-0.46,0.13,42.05,-30.25,-22.04,73784
2.62,12.85,-2.49,-0.17,-0.75,0.71,34.22,-27.08,-30.34,73917
-7.17,9.91,-5.32,-1.44,-2.01,0.33,27.30,-20.67,-38.35,74051
-3.85,-1.04,-3.61,-0.14,1.59,-0.37,31.77,-13.08,-31.50,74185
-4.97,7.30,-2.16,2.90,0.51,1.99,34.64,-24.89,-24.51,74319
-10.26,6.12,-1.76,1.14,-1.95,0.74,36.39,-37.42,-7.64,74453
-2.07,12.82,1.72,-2.25,0.50,-1.24,32.39,-44.20,-8.56,74586
-6.41,4.79,-5.13,-0.19,-3.16,0.35,23.46,-50.56,-14.03,74720
-1.44,8.30,-6.20,-0.53,-1.18,-0.11,25.05,-48.67,-20.39,74854
-3.09,7.68,-4.98,0.06,-1.68,0.59,22.24,-46.58,-25.08,74988
-1.45,9.51,-3.41,0.23,-1.67,0.68,15.92,-44.15,-26.09,75122
-1.79,9.06,-2.84,0.17,-1.37,0.72,9.79,-40.87,-25.78,75255
-1.98,8.45,-2.83,-0.27,-0.81,0.24,6.34,-37.36,-27.02,75389
-6.10,9.13,0.98,1.05,-0.80,0.56,1.34,-35.15,-26.22,75523
-3.32,7.68,-5.57,0.15,-0.93,-0.05,-1.70,-33.25,-25.18,75657
-1.22,9.69,-2.30,-0.58,-0.30,-0.49,-2.48,-30.06,-26.79,75791
-2.60,9.13,-1.70,-0.76,0.01,-0.66,-1.89,-29.74,-29.20,75924
0.75,10.19,0.86,-1.05,1.13,0.36,-0.85,-32.43,-30.72,76058
0.78,8.49,-3.26,-1.60,2.72,0.13,0.54,-38.63,-37.21,76192
-4.98,8.23,-0.08,-0.19,0.92,-0.59,3.62,-40.73,-41.23,76326
-3.62,9.02,0.76,-0.10,0.34,0.07,2.10,-42.08,-42.39,76459
-3.77,8.24,0.54,-0.11,0.34,0.15,0.50,-41.29,-44.40,76593
