ax,ay,az,gx,gy,gz,mx,my,mz,timestamp
-2.60,8.93,-3.96,0.16,0.31,-0.20,31.83,4.38,-28.15,17235
-1.77,8.81,-4.17,0.31,0.23,-0.35,31.57,4.69,-27.97,17269
-0.30,9.43,-2.10,0.18,0.18,-0.22,31.28,4.44,-27.86,17303
-1.18,9.36,-1.86,0.21,0.29,-0.21,31.18,4.94,-27.54,17337
-2.41,9.83,-2.69,0.11,0.18,-0.11,31.72,4.50,-27.49,17372
-2.73,9.32,-3.21,-0.40,0.02,0.21,32.27,3.80,-26.88,17406
-1.01,8.87,-3.22,-0.57,-0.22,0.48,32.72,3.10,-27.01,17440
-1.22,9.47,-3.74,-0.13,-0.18,0.45,32.72,2.50,-27.92,17474
-0.93,9.29,-1.28,0.01,-0.39,0.37,32.26,2.44,-27.46,17508
-2.19,9.74,-1.69,-0.07,-0.13,0.33,32.78,2.08,-28.41,17542
-2.64,9.32,-4.00,-0.09,-0.10,0.30,33.22,1.49,-27.84,17577
-2.51,9.01,-4.31,0.06,-0.23,0.14,33.35,1.23,-27.62,17611
-3.70,9.49,-5.02,0.29,-0.43,-0.16,33.13,1.67,-28.52,17645
-3.44,7.91,-4.84,0.71,-0.38,-0.68,33.48,1.65,-29.76,17679
-2.80,9.89,-6.38,1.20,-0.96,-0.78,32.80,1.94,-31.51,17713
-3.81,11.38,-2.94,1.57,-1.86,-0.78,31.82,2.25,-34.54,17748
0.24,13.80,-3.92,1.84,-2.76,-0.15,30.49,2.18,-37.49,17782
-3.01,11.86,-6.80,1.49,-2.47,-0.12,28.49,1.45,-40.88,17816
0.78,9.76,-5.22,1.67,-2.74,0.07,26.24,-0.35,-44.29,17850
-1.19,4.82,-1.64,1.45,-2.58,0.12,23.66,-1.97,-47.31,17884
3.22,6.15,-2.59,1.63,-2.33,0.50,21.75,-4.22,-49.99,17918
5.19,7.40,0.32,0.83,-0.34,0.39,21.24,-5.48,-50.57,17953
1.69,6.78,-1.50,0.27,2.13,0.28,23.49,-6.37,-48.76,17987
-1.41,8.81,-2.92,-0.32,2.78,0.44,26.70,-6.64,-46.81,18021
-1.83,9.31,-4.28,-0.79,2.71,0.40,29.77,-6.43,-43.63,18055
-8.58,6.98,-11.90,-0.92,2.49,0.00,32.34,-6.56,-40.34,18089
-3.70,6.00,-8.22,-0.86,0.47,-1.98,33.18,-5.95,-39.80,18124
-6.68,3.60,-1.85,0.43,0.94,-1.93,34.14,-4.03,-38.70,18158
-1.51,12.84,-3.20,0.27,-0.01,-0.03,34.13,-3.95,-38.63,18192
-3.87,6.86,-3.33,0.14,0.14,0.38,33.91,-4.95,-38.38,18226
-5.39,8.03,-3.70,0.23,-0.13,0.40,33.84,-5.52,-38.54,18260
-2.90,8.02,-5.84,0.39,-0.80,0.34,33.06,-6.07,-40.00,18294
-2.93,7.49,-6.04,0.64,-0.91,0.31,32.04,-6.61,-41.54,18329
-2.91,7.55,-5.77,0.45,-0.97,0.49,31.06,-7.50,-43.86,18363
-4.42,6.83,-4.16,0.45,-1.04,0.26,29.89,-7.44,-45.37,18397
-4.65,6.60,-4.43,0.41,-1.12,0.16,28.76,-7.63,-46.19,18431
-3.20,8.50,-4.52,0.38,-0.94,0.27,27.84,-7.00,-46.93,18465
-3.66,8.57,-4.36,0.45,-0.75,0.48,27.01,-8.05,-47.92,18500
-4.24,8.38,-5.66,0.27,-0.88,0.81,27.02,-8.89,-49.15,18534
-2.69,9.08,-5.08,0.07,-1.14,1.11,25.84,-9.16,-49.91,18568
-4.18,8.96,-2.92,-0.10,-1.30,1.26,24.51,-10.06,-51.72,18602
1.43,6.98,-3.41,-0.34,-1.35,1.36,23.49,-10.76,-52.19,18636
0.11,8.37,-5.19,-0.40,-1.29,1.58,22.26,-11.69,-53.65,18670
1.97,7.03,-3.70,-0.38,-1.34,1.33,20.90,-12.15,-55.88,18705
-0.19,7.76,-3.04,-0.23,-0.88,0.32,19.72,-12.34,-55.96,18739
0.19,8.32,-4.31,-0.38,-0.57,-0.16,19.67,-12.15,-56.85,18773
-0.81,8.56,-4.14,-0.42,-0.19,-0.45,20.04,-11.46,-55.95,18807
-1.17,8.37,-4.49,-0.46,-0.13,-0.83,20.49,-10.55,-57.13,18841
-2.32,8.04,-6.15,-0.46,0.01,-1.14,20.84,-9.18,-56.91,18875
-1.37,8.68,-5.01,-0.44,0.35,-1.22,21.59,-8.05,-56.43,18910
-0.26,5.91,-4.89,-0.45,0.56,-1.58,22.98,-6.45,-55.41,18944
-3.17,6.14,-6.35,-0.39,0.23,-1.33,23.40,-4.47,-54.95,18978
-2.07,7.63,-4.52,-0.32,-0.18,-1.19,23.65,-2.89,-54.59,19012
-2.21,8.49,-3.14,-0.21,-0.25,-1.04,24.04,-2.41,-55.31,19046
-4.10,9.18,-1.60,-0.43,-0.38,-0.76,24.01,-0.99,-55.22,19081
-3.39,9.28,-0.65,-0.66,-0.79,-0.44,22.60,0.20,-55.74,19115
-0.55,10.15,-1.74,-0.75,-1.34,-0.22,21.44,1.68,-55.96,19149
2.05,12.43,-4.29,-1.02,-1.86,0.20,19.03,3.00,-56.46,19183
1.28,18.33,-2.69,-1.37,-1.40,0.58,16.57,4.09,-57.51,19217
-1.67,15.58,-8.15,-1.72,-1.81,0.63,15.04,5.35,-57.00,19251
-3.05,10.34,-12.47,-2.19,-2.29,-0.55,11.85,8.11,-58.29,19286
-3.44,10.83,-11.49,0.30,-0.73,-2.82,10.10,8.24,-58.86,19320
-0.81,7.18,-6.39,-0.33,1.34,-3.40,10.01,9.84,-58.52,19354
-2.11,3.54,-5.45,-0.68,2.98,-2.70,12.64,11.59,-56.59,19388
-5.66,1.13,-6.05,-0.28,3.05,-1.63,15.96,12.39,-54.14,19422
-6.81,1.78,-5.54,-0.19,2.41,-0.79,19.63,13.05,-51.58,19457
-7.41,3.40,-3.66,-0.25,1.63,0.09,21.76,12.36,-49.28,19491
-6.48,4.89,-3.39,-0.31,2.12,0.08,23.97,12.76,-46.62,19525
-8.85,4.87,-4.02,-0.42,2.48,-0.12,26.92,12.63,-43.39,19559
-9.04,5.85,-3.59,-0.27,2.14,-0.25,28.95,12.55,-40.59,19593
-8.53,5.49,-3.96,-0.18,1.87,-0.35,31.07,12.79,-36.98,19627
-8.56,4.68,-3.07,-0.13,1.47,-0.32,32.42,12.32,-34.45,19662
-7.84,5.12,-3.20,-0.10,1.44,-0.39,32.97,11.69,-32.33,19696
-8.00,5.27,-3.91,-0.02,1.21,-0.37,33.35,11.25,-30.12,19730
-7.15,6.05,-3.88,0.21,0.72,-0.21,33.78,10.26,-28.47,19764
-6.57,5.97,-2.92,0.38,0.58,-0.00,33.37,9.49,-27.86,19798
-6.67,5.54,-3.52,0.46,0.68,0.06,33.56,8.52,-26.86,19833
-6.70,5.94,-3.64,0.65,0.23,0.28,33.12,7.19,-26.75,19867
-5.63,6.23,-3.47,0.72,-0.00,0.39,32.83,5.52,-27.64,19901
-5.58,6.86,-4.13,0.70,0.10,0.36,32.68,4.43,-27.64,19935
-6.46,7.24,-4.60,0.66,0.06,0.28,32.46,3.92,-28.09,19969
-5.51,7.28,-4.66,0.65,-0.24,0.29,32.11,1.93,-29.13,20003
-4.59,6.31,-4.69,0.65,-0.80,0.43,31.32,1.48,-30.78,20038
-19.60,12.76,-12.42,1.13,-1.58,0.43,30.65,-0.15,-33.84,20072
-2.14,8.49,-1.31,0.99,-2.05,0.82,29.03,-1.71,-36.64,20106
-7.81,7.52,0.09,0.89,-2.67,1.24,27.84,-3.27,-39.39,20140
-3.55,9.80,0.38,0.30,-2.02,0.80,25.12,-4.95,-42.53,20174
-5.25,10.08,1.11,-1.02,-0.75,-0.18,24.23,-4.14,-43.95,20208
-3.30,7.69,-2.69,-1.96,0.89,-1.30,23.93,-1.23,-43.64,20243
-4.66,6.83,-7.68,-2.05,1.32,-1.40,24.82,2.47,-42.37,20277
-3.33,8.09,-8.45,-1.81,1.25,-0.99,25.78,4.97,-41.25,20311
-5.30,5.91,-6.50,-1.76,1.56,-0.81,26.35,7.26,-38.97,20345
-3.02,7.00,-4.18,-1.88,1.61,-0.48,27.61,8.99,-36.74,20379
0.21,10.59,-0.89,-2.07,2.32,-0.83,28.75,11.31,-32.20,20414
1.80,10.65,-8.29,-2.57,3.11,-0.83,28.95,13.77,-28.71,20448
0.71,8.63,-8.99,-2.47,3.08,-0.51,29.77,16.02,-23.34,20482
1.60,9.39,-7.82,-2.26,3.08,-0.53,29.89,17.30,-17.13,20516
-1.96,6.62,-12.93,-2.20,3.41,-1.09,28.85,18.72,-11.79,20550
-0.56,5.88,-13.38,-1.88,3.29,-1.37,27.19,19.77,-5.17,20584
-0.13,6.39,-10.32,-1.78,3.45,-1.19,24.32,19.57,0.48,20619
-2.14,8.29,-9.71,-1.70,3.48,-1.24,21.05,19.34,4.87,20653
-0.02,6.60,-7.57,-1.66,3.43,-0.96,16.82,18.61,9.97,20687
-0.46,9.96,-10.29,-2.15,4.36,-1.47,12.69,17.41,13.90,20721
-5.32,7.25,-16.11,-2.64,5.24,-2.61,5.48,15.21,18.21,20755
-2.57,-0.90,-16.14,-2.26,5.07,-2.93,-4.28,11.60,20.53,20790
-3.29,10.98,-13.12,-2.33,5.03,-2.79,-11.39,8.02,20.37,20824
-5.50,3.19,-12.17,-3.00,5.75,-4.19,-21.21,1.34,17.11,20858
-3.75,3.77,-12.39,-3.20,5.60,-4.12,-27.64,-5.41,12.79,20892
-2.46,6.33,-11.15,-3.75,5.84,-4.46,-33.22,-11.85,7.00,20926
-2.86,2.09,-10.58,-4.27,5.83,-4.68,-36.01,-20.99,-3.03,20960
-0.81,7.27,-11.50,-4.68,5.56,-4.44,-35.88,-27.83,-11.97,20995
-1.69,3.84,-11.35,-5.13,5.61,-4.71,-32.81,-33.44,-23.44,21029
-2.32,7.59,-12.58,-5.81,5.55,-4.60,-26.06,-35.76,-33.37,21063
0.09,10.21,-12.87,-6.75,6.10,-4.77,-18.61,-34.42,-43.83,21097
6.71,8.53,-16.86,-7.40,6.99,-4.76,-6.81,-28.34,-53.49,21131
2.25,8.46,-11.09,-7.52,8.16,-4.75,5.52,-19.28,-56.46,21166
-3.59,8.22,-12.61,-6.12,7.19,-3.42,16.49,-10.17,-55.42,21200
-4.49,3.98,-11.15,-3.93,4.64,-1.70,24.57,-2.59,-50.37,21234
-6.67,3.36,-9.52,-2.09,2.71,-0.16,28.16,0.83,-46.33,21268
-4.36,6.71,-7.24,-1.99,2.46,-0.26,31.31,2.75,-42.02,21302
4.90,8.55,-5.94,-2.16,2.71,-0.44,33.09,4.81,-38.42,21336
1.16,8.85,-5.89,-2.14,3.15,-0.96,34.89,6.72,-33.32,21371
-2.26,8.37,-6.64,-2.02,2.92,-0.70,36.26,8.32,-26.69,21405
1.19,9.50,-12.38,-2.02,2.99,-0.99,36.26,9.11,-21.51,21439
-0.03,4.57,-12.50,-1.69,3.13,-1.98,34.77,10.36,-15.16,21473
2.14,7.04,-13.60,-1.95,3.69,-2.11,33.03,11.84,-10.22,21507
-5.62,6.23,-15.36,-2.07,4.53,-3.57,28.90,13.88,-4.49,21541
-2.37,2.69,-11.33,-1.84,3.98,-3.34,22.76,16.30,1.72,21576
-0.56,4.62,-5.51,-1.49,2.85,-0.57,19.13,16.46,5.36,21610
-3.45,9.71,-3.78,-0.74,1.39,0.88,17.30,15.26,6.04,21644
0.57,8.10,-3.43,-0.28,0.57,1.33,16.68,14.44,7.22,21678
-0.69,6.02,-5.04,-0.82,1.62,0.69,15.71,13.75,7.86,21712
-2.16,8.34,-9.80,-1.19,3.53,-1.73,12.57,12.83,9.87,21747
-5.85,4.94,-12.20,-0.91,3.40,-2.43,7.56,13.14,11.06,21781
-0.82,3.24,-13.97,-0.65,3.01,-2.45,2.95,12.83,11.17,21815
-5.45,8.67,-9.71,-0.91,3.35,-2.91,-3.10,12.26,11.98,21849
-4.99,6.59,-8.26,-1.37,3.42,-3.77,-8.39,10.52,12.57,21883
-3.17,2.77,-8.59,-1.38,3.25,-3.14,-15.07,7.85,11.14,21917
-0.79,7.31,-7.93,-1.72,3.56,-2.75,-18.97,4.82,9.78,21952
-4.18,6.17,-8.94,-3.51,5.46,-4.04,-25.02,0.60,7.40,21986
-3.21,4.86,-11.41,-4.58,6.38,-4.98,-30.62,-8.43,0.51,22020
-2.09,5.04,-12.37,-4.61,6.13,-4.83,-33.44,-15.05,-6.20,22054
-1.72,5.02,-8.51,-4.47,5.45,-4.25,-33.57,-21.89,-16.12,22088
1.35,8.01,-7.46,-5.36,6.12,-4.64,-30.88,-25.77,-24.79,22123
5.41,10.60,-12.06,-6.42,6.76,-5.16,-25.55,-28.34,-34.11,22157
3.82,9.42,-18.23,-7.26,6.98,-5.39,-15.87,-26.18,-44.65,22191
10.05,9.49,-22.23,-7.68,7.22,-5.10,-6.23,-20.56,-50.58,22225
8.33,8.38,-24.30,-8.37,8.85,-4.96,4.97,-10.04,-51.67,22259
2.92,6.00,-16.51,-7.59,8.89,-4.36,16.79,-0.03,-47.41,22293
-0.41,8.68,-17.13,-5.83,7.82,-2.89,22.79,6.80,-39.71,22328
3.25,4.42,-17.58,-3.95,5.51,-0.80,26.47,12.06,-31.10,22362
-6.36,1.83,-15.32,-3.91,6.06,-1.43,27.77,15.07,-22.89,22396
-2.79,3.78,-14.05,-3.33,5.87,-2.22,26.85,17.92,-13.77,22430
-1.42,2.25,-6.83,-2.12,4.00,-0.70,24.63,19.75,-6.30,22464
8.33,11.45,-14.52,-1.49,2.69,0.11,23.60,19.85,-1.49,22499
-1.09,3.26,-12.75,-0.79,1.90,0.46,22.98,18.37,2.40,22533
-0.55,11.00,-12.64,-0.89,2.52,-0.36,21.82,17.71,5.52,22567
-13.00,9.24,-11.60,-1.47,4.59,-3.57,16.78,17.74,9.95,22601
-7.30,-4.52,-13.81,-1.87,5.06,-5.24,6.24,18.81,14.73,22635
-3.56,8.94,-13.98,-1.75,4.79,-3.51,-1.33,16.60,16.81,22669
-2.87,5.69,-18.35,-2.50,4.63,-5.32,-12.36,13.02,17.41,22704
-2.91,-7.55,-10.77,-1.51,3.38,-3.58,-19.76,9.27,15.17,22738
-7.24,10.27,-3.23,-1.41,3.28,-2.84,-23.40,5.51,13.58,22772
-10.13,2.55,-2.67,-1.79,4.28,-3.74,-29.70,0.06,10.42,22806
-6.49,4.58,-7.72,-1.60,3.77,-3.24,-33.89,-5.04,6.56,22840
-5.15,3.34,-8.82,-1.45,3.38,-2.80,-35.98,-9.66,2.53,22875
-2.76,5.45,-9.72,-2.04,4.02,-3.24,-38.32,-14.66,-3.92,22909
-6.36,1.13,-5.00,-2.74,4.70,-3.93,-38.66,-20.99,-10.83,22943
-5.64,6.27,-6.42,-2.86,4.58,-3.96,-36.92,-27.08,-19.63,22977
-7.59,7.16,-8.22,-4.05,5.40,-5.80,-33.19,-31.54,-28.03,23011
-10.90,1.28,-8.17,-4.34,4.65,-6.32,-26.16,-35.14,-36.39,23045
-4.98,5.79,-7.39,-4.35,4.22,-6.15,-16.56,-35.43,-43.61,23080
-4.85,4.07,-3.69,-5.04,5.34,-6.67,-6.43,-32.81,-48.77,23114
-3.29,5.97,-5.78,-5.38,6.52,-6.64,7.31,-25.59,-52.59,23148
-3.48,9.47,-4.04,-5.10,6.38,-6.05,17.90,-17.29,-50.70,23182
-0.54,12.89,-3.03,-3.86,4.87,-4.28,25.37,-10.27,-47.66,23216
-0.50,10.60,-4.36,-3.78,4.32,-3.39,30.33,-2.97,-42.21,23250
-2.42,6.37,-8.59,-2.89,3.20,-2.21,32.27,1.80,-37.31,23285
-0.51,7.72,-5.36,-2.30,2.48,-1.60,33.69,5.63,-31.98,23319
-2.24,10.07,-6.46,-2.30,2.56,-1.69,34.10,8.04,-28.03,23353
0.47,7.45,-8.81,-3.24,4.09,-3.30,32.93,12.55,-21.95,23387
2.16,6.51,-9.63,-3.26,4.44,-3.34,30.11,16.78,-12.67,23421
4.57,10.10,-8.12,-2.90,4.12,-2.12,27.36,17.77,-6.31,23456
6.93,11.31,-9.65,-3.46,5.31,-2.65,23.55,18.23,2.63,23490
5.97,4.47,-11.82,-4.08,6.85,-3.79,15.36,17.76,10.30,23524
6.67,5.14,-18.04,-3.95,7.74,-4.94,4.68,15.33,15.04,23558
2.57,0.39,-16.44,-2.93,7.04,-5.30,-9.03,11.01,17.20,23592
1.35,4.44,-13.85,-2.48,5.62,-3.48,-17.07,6.08,15.35,23626
-4.37,8.77,-9.02,-2.15,4.84,-2.99,-23.59,2.16,12.03,23661
-2.91,2.86,-6.39,-1.54,3.25,-1.29,-29.04,-1.55,9.47,23695
2.57,10.25,-9.91,-1.30,2.83,-0.05,-31.58,-2.72,7.19,23729
-4.72,7.49,-11.12,-2.35,4.18,-2.03,-35.43,-5.66,2.38,23763
-6.29,-1.69,-6.72,-1.06,2.34,-1.09,-37.83,-8.29,-2.09,23797
4.09,9.05,-12.07,-1.04,2.10,-0.39,-38.57,-9.66,-5.51,23832
-12.27,8.51,-11.42,-2.11,4.00,-2.95,-39.58,-13.65,-10.61,23866
-6.58,-3.48,-10.04,-1.66,3.08,-4.83,-39.30,-19.10,-15.38,23900
1.14,3.70,-7.47,-0.71,1.48,-2.65,-37.64,-23.90,-18.68,23934
1.81,16.98,-0.38,-2.04,2.45,-1.67,-35.59,-26.86,-22.55,23968
-2.93,12.91,2.92,-3.83,3.90,-2.27,-34.04,-27.30,-33.13,24002
-0.72,9.48,-5.64,-3.99,4.41,-2.63,-30.56,-28.18,-37.34,24037
4.85,7.98,-11.50,-3.54,3.77,-3.20,-26.19,-27.33,-43.82,24071
4.58,10.83,-9.63,-3.52,3.35,-3.29,-20.01,-26.34,-49.14,24105
4.81,18.72,-10.80,-5.04,4.31,-3.26,-14.37,-23.00,-53.42,24139
-2.13,12.97,-17.36,-6.27,5.92,-4.24,-6.61,-16.97,-57.37,24173
5.04,5.49,-21.57,-6.52,7.43,-4.64,4.75,-6.21,-57.64,24208
3.34,12.03,-18.56,-5.67,7.30,-3.85,13.64,2.56,-52.95,24242
5.67,11.91,-14.48,-4.88,6.60,-3.53,20.93,9.54,-44.14,24276
12.82,6.63,-7.84,-2.50,5.31,-1.64,24.63,12.15,-37.59,24310
-7.80,3.47,-19.52,-2.93,3.94,0.02,27.07,13.24,-31.99,24344
-8.87,-1.72,-15.50,-1.54,1.99,1.70,29.44,12.00,-26.78,24378
-10.80,8.74,-6.34,-0.83,1.02,1.51,30.84,9.65,-25.43,24413
-2.49,3.95,-3.87,-2.03,2.86,-1.28,30.28,10.13,-22.04,24447
6.55,6.43,0.64,-2.70,3.48,-0.82,29.96,10.80,-17.32,24481
0.42,7.16,-12.40,-3.30,4.11,-0.40,27.70,11.81,-11.36,24515
3.16,9.72,-18.20,-2.49,2.62,0.48,26.56,11.63,-6.49,24549
2.64,10.88,-19.74,-1.89,1.59,1.43,26.47,10.80,-3.93,24583
-15.28,-2.93,-7.71,0.17,-0.21,0.63,27.02,9.53,-3.57,24618
-11.78,6.20,-2.60,0.36,0.33,0.16,27.77,9.89,-4.15,24652
-9.21,11.29,-9.33,-0.56,1.91,-1.33,26.76,10.14,-1.45,24686
-6.41,-0.45,-4.17,0.71,0.24,-1.88,25.34,12.28,-1.49,24720
-0.66,9.99,-2.73,0.19,0.89,-0.82,24.93,13.02,-1.39,24754
-3.78,11.41,-6.92,-0.84,2.16,-1.77,22.01,14.03,2.32,24789
-10.40,9.95,-1.08,-0.48,1.77,-3.27,19.06,16.19,3.84,24823
3.42,7.38,-5.64,-1.62,3.14,-3.28,14.06,16.75,6.20,24857
-5.96,13.61,-6.73,-2.32,3.97,-3.15,8.18,16.30,10.39,24891
-3.56,11.61,-11.10,-2.45,3.78,-4.54,0.66,15.36,13.18,24925
0.88,-3.95,-13.21,-1.43,2.25,-3.19,-6.61,13.30,14.73,24959
-7.84,6.51,-3.05,-0.85,1.84,-2.05,-9.41,11.30,14.22,24994
-9.71,10.37,-1.53,-2.46,3.41,-3.49,-13.65,8.24,14.92,25028
-4.61,3.21,-10.48,-3.57,4.24,-4.02,-21.92,2.47,12.64,25062
-4.81,0.73,-10.35,-1.77,2.52,-1.86,-26.03,-1.84,11.40,25096
-4.02,8.94,-1.38,-0.86,1.93,-0.86,-27.19,-5.79,8.74,25130
-31.36,10.09,-18.10,-3.12,4.91,-3.02,-30.49,-9.68,5.48,25165
-4.64,1.33,-8.43,-3.69,4.20,-2.89,-33.72,-14.70,-0.07,25199
-4.56,4.25,-13.25,-2.13,3.61,-2.19,-34.93,-19.53,-6.04,25233
-1.32,7.02,-5.80,-2.35,2.82,-1.79,-34.96,-22.32,-10.73,25267
1.84,8.20,-1.61,-2.68,3.24,-1.80,-34.79,-24.50,-15.54,25301
1.06,9.00,-10.41,-3.79,4.95,-3.01,-32.91,-27.76,-24.71,25335
0.96,7.25,-9.32,-4.18,4.89,-3.61,-28.88,-30.68,-32.43,25370
1.32,13.59,-10.04,-4.43,4.86,-3.94,-22.67,-30.80,-40.51,25404
6.86,10.28,-11.95,-6.49,5.60,-5.42,-16.16,-27.32,-47.41,25438
15.29,10.96,-16.14,-7.19,5.98,-5.08,-7.54,-21.60,-53.54,25472
10.17,13.40,-19.71,-7.83,7.52,-4.82,3.95,-10.98,-54.11,25506
5.85,11.45,-18.78,-7.66,7.55,-3.95,12.79,-1.14,-50.82,25541
3.75,12.49,-22.93,-6.91,7.11,-3.80,19.39,10.27,-42.52,25575
7.73,3.91,-24.14,-5.91,6.91,-3.63,21.44,17.41,-33.03,25609
5.93,7.24,-23.58,-5.23,6.57,-2.68,22.10,22.10,-22.95,25643
6.64,9.20,-17.10,-5.30,6.95,-2.40,20.89,24.03,-10.01,25677
14.05,14.23,-14.39,-4.54,7.40,-1.66,17.03,22.99,-0.28,25711
6.40,7.09,-20.22,-3.79,6.13,-0.67,11.25,20.81,8.26,25746
5.25,1.19,-20.53,-3.36,5.93,-1.15,5.55,17.45,12.83,25780
1.78,3.98,-18.85,-2.11,5.10,-1.77,-0.23,13.84,15.92,25814
-2.72,1.57,-15.65,-1.99,5.11,-2.79,-8.58,10.03,15.70,25848
-6.46,2.23,-16.92,-1.93,4.92,-3.15,-16.24,6.26,15.42,25882
-2.12,7.50,-11.17,-1.87,3.94,-2.13,-22.80,2.21,11.91,25916
2.85,12.17,-5.88,-2.31,3.46,-0.18,-26.85,0.35,10.04,25951
-1.69,5.13,-8.41,-3.37,3.94,-0.07,-31.12,-1.61,5.83,25985
4.51,-1.25,-24.54,-2.12,3.87,-1.68,-35.14,-4.95,1.51,26019
-7.45,-2.71,-14.98,0.11,1.91,-1.21,-35.79,-7.48,-2.22,26053
-6.76,10.64,-5.31,0.77,1.29,-2.68,-36.33,-10.60,-4.28,26087
3.90,11.26,-3.92,-1.83,3.10,-3.69,-36.73,-15.86,-7.29,26122
2.23,16.47,-8.43,-3.72,4.44,-4.20,-37.27,-20.52,-14.24,26156
0.55,9.69,-17.89,-4.46,4.36,-4.88,-35.30,-25.20,-22.57,26190
1.96,3.30,-13.84,-3.56,3.07,-3.58,-32.11,-27.27,-28.50,26224
-1.46,4.33,-8.08,-2.19,1.74,-1.70,-29.95,-28.02,-32.58,26258
-1.02,5.36,-5.72,-2.62,2.02,-1.51,-27.81,-27.77,-36.39,26292
-0.55,7.90,-9.69,-3.68,3.12,-1.81,-24.79,-26.94,-40.24,26327
0.96,9.21,-8.97,-4.33,4.02,-1.76,-19.92,-24.47,-46.38,26361
-0.58,12.22,-14.29,-4.48,4.12,-1.95,-14.54,-21.48,-50.66,26395
-2.70,6.97,-12.74,-4.78,3.87,-2.03,-9.76,-16.28,-53.29,26429
-6.12,3.19,-9.02,-4.57,4.06,-1.57,-3.93,-10.79,-55.00,26463
-6.85,8.48,-6.90,-3.79,3.13,-1.07,0.42,-6.52,-55.95,26498
-7.32,7.02,-5.76,-3.03,2.90,-0.87,4.22,-2.47,-55.42,26532
-0.65,8.56,-5.82,-2.53,2.53,-0.72,8.21,1.78,-53.48,26566
0.29,9.88,-6.40,-2.57,2.81,-0.85,10.76,4.90,-51.33,26600
-2.19,8.25,-7.28,-2.74,2.94,-0.78,14.22,8.30,-48.35,26634
1.55,9.78,-5.82,-2.55,2.84,-0.24,17.00,10.86,-45.95,26668
-0.30,14.01,-9.98,-2.91,4.11,-1.00,20.36,13.50,-41.63,26703
-2.26,9.75,-12.86,-3.22,4.30,-2.21,22.04,17.66,-34.22,26737
-4.17,2.37,-14.62,-2.87,4.05,-2.27,22.24,21.18,-28.35,26771
1.79,1.24,-10.75,-2.35,3.06,-1.17,22.74,23.11,-23.25,26805
0.08,0.56,-7.93,-2.34,3.46,-0.69,22.67,23.38,-18.49,26839
-4.24,9.59,-10.93,-3.43,4.49,-0.66,22.68,23.59,-10.90,26874
-10.26,10.23,-14.93,-3.92,5.04,-2.26,18.72,23.78,-1.80,26908
-7.32,4.31,-17.46,-3.60,3.59,-3.37,13.08,23.50,4.38,26942
-4.97,-1.35,-17.38,-2.80,2.62,-3.09,7.56,23.05,7.99,26976
-6.28,-3.80,-12.91,-1.59,1.59,-2.10,2.98,20.93,11.65,27010
-6.28,-5.05,-6.40,-0.76,0.79,-0.53,1.30,19.89,11.87,27044
-3.95,1.05,0.51,-0.38,0.73,0.59,1.30,18.68,12.45,27079
-7.68,10.58,6.53,-0.85,1.36,1.14,1.30,17.11,13.59,27113
-9.97,16.78,-16.30,-1.35,2.63,-0.92,-0.32,15.51,14.66,27147
-2.07,0.47,2.96,-1.05,1.84,-0.44,-3.51,14.24,15.92,27181
-4.74,4.60,-5.81,-1.12,2.22,0.15,-5.54,12.53,15.29,27215
-5.47,9.86,-5.75,-1.56,2.38,1.24,-8.32,11.63,17.01,27250
-4.52,7.03,-4.61,-1.57,2.49,0.85,-10.99,10.82,16.31,27284
-4.03,7.39,-3.07,-1.15,2.45,0.74,-14.05,9.51,16.53,27318
-3.41,7.65,-4.69,-0.98,2.65,0.63,-17.35,8.61,15.65,27352
-4.67,7.70,-2.95,-0.87,2.56,0.72,-20.49,8.46,14.10,27386
-0.60,8.60,-4.72,-0.83,3.38,0.43,-23.41,8.13,12.41,27420
0.84,8.48,-5.65,-0.80,3.57,0.45,-27.39,8.36,9.37,27455
7.36,8.03,-8.53,-0.65,3.02,0.73,-29.82,8.32,6.80,27489
1.98,7.35,-7.39,-0.38,3.89,0.54,-31.85,8.39,1.52,27523
1.54,5.56,-5.83,-0.73,2.50,1.27,-33.59,9.47,-0.61,27557
-0.18,8.64,-3.83,-0.97,3.96,0.36,-34.38,10.68,-3.95,27591
-4.16,5.24,-9.40,-0.08,4.12,-0.88,-36.67,8.97,-9.79,27625
-5.84,5.17,-8.85,0.55,2.80,-1.23,-38.37,7.92,-13.81,27660
2.73,11.55,-1.38,0.63,1.69,-0.49,-38.59,7.82,-16.46,27694
0.14,9.46,-3.15,0.73,1.95,-0.87,-39.32,6.46,-19.13,27728
-0.94,10.05,-6.72,0.62,2.50,-1.20,-39.10,5.39,-22.49,27762
-4.85,6.37,-9.96,0.87,2.40,-2.06,-39.27,3.30,-26.03,27796
-8.35,6.20,-8.80,1.45,1.70,-2.67,-39.54,-0.48,-28.11,27831
-11.76,1.19,-7.29,1.96,1.55,-3.60,-38.91,-4.94,-30.69,27865
-10.30,5.37,-16.73,1.69,1.50,-3.80,-37.50,-10.44,-32.72,27899
-21.70,13.58,-1.31,1.44,2.29,-4.20,-35.37,-17.36,-34.35,27933
-4.20,13.80,5.43,-0.01,2.54,-3.44,-32.05,-22.62,-37.02,27967
-6.44,14.12,5.69,-0.49,2.66,-3.04,-28.34,-25.83,-40.16,28001
-2.28,12.24,1.72,-0.84,2.15,-2.48,-24.99,-26.94,-43.23,28036
1.03,8.06,-9.81,-0.71,1.44,-1.33,-21.84,-27.83,-45.38,28070
1.56,9.44,-4.11,-0.07,0.66,-0.64,-20.62,-28.81,-45.70,28104
1.05,9.71,-3.51,-0.37,0.82,-0.67,-19.03,-28.56,-47.08,28138
-1.93,11.14,-2.45,-0.84,1.23,-0.15,-17.73,-28.16,-48.49,28172
-4.59,5.98,-5.15,-1.51,2.03,-1.18,-14.83,-27.29,-50.09,28207
-4.33,7.14,-5.14,-0.93,0.14,0.21,-14.06,-26.12,-50.26,28241
-6.57,6.32,-4.66,-0.56,-0.49,-0.12,-14.15,-24.48,-50.41,28275
0.40,9.76,-4.27,-0.23,-0.92,-0.31,-15.73,-23.94,-50.07,28309
-2.61,7.72,-5.18,0.02,-0.37,-0.47,-15.19,-24.28,-50.29,28343
-3.36,9.96,-1.34,-0.05,-0.55,-0.40,-14.97,-24.96,-50.09,28377
-3.36,10.86,-3.30,-0.18,-0.88,-0.43,-15.46,-25.02,-49.90,28412
3.90,14.09,-3.09,-1.03,-1.41,-0.25,-17.04,-23.50,-49.17,28446
11.96,20.00,-5.29,-1.92,-1.38,-0.25,-18.56,-21.67,-50.28,28480
5.48,22.40,-3.60,-2.41,-0.25,-0.62,-18.90,-19.00,-50.35,28514
14.47,21.24,-4.86,-3.57,0.02,-1.11,-18.90,-15.87,-51.80,28548
-15.87,0.20,-27.82,-4.13,3.22,-3.80,-14.48,-11.74,-54.53,28583
-5.36,8.68,-10.15,-2.34,3.96,-5.19,-8.78,-10.76,-55.17,28617
0.23,5.30,-9.60,-2.23,3.46,-3.88,-4.08,-8.61,-55.52,28651
-3.44,2.20,-10.24,-1.16,2.91,-1.86,1.21,-6.45,-55.00,28685
-4.54,2.12,-6.84,-0.82,2.02,-0.43,3.68,-5.16,-54.24,28719
-3.15,1.96,-5.42,-0.76,2.42,-0.18,6.36,-4.56,-53.57,28753
-5.80,0.88,-5.26,-1.08,3.21,-0.05,10.04,-2.73,-51.67,28788
-7.47,0.60,-5.64,-1.23,3.83,-0.42,13.62,-1.30,-50.53,28822
-8.18,0.92,-5.73,-1.64,3.91,-0.63,18.27,1.51,-47.78,28856
-11.30,1.71,-6.26,-1.69,3.16,-0.81,21.15,3.67,-43.86,28890
-9.56,2.22,-5.94,-1.70,2.30,-0.91,22.92,5.73,-41.49,28924
-10.11,2.96,-1.67,-1.71,0.24,-0.35,24.14,7.89,-39.55,28958
3.43,2.76,-0.12,-1.22,-0.70,0.09,24.38,8.32,-38.98,28993
-10.69,7.08,1.84,-0.66,0.35,-0.26,24.61,8.75,-38.56,29027
-3.26,8.58,2.84,-0.42,-0.09,0.24,24.98,8.35,-38.54,29061
-0.90,8.92,1.52,-1.59,1.27,-0.24,25.99,8.93,-36.92,29095
-2.86,11.99,-4.18,-2.54,2.76,-0.81,27.51,10.03,-31.64,29129
-4.58,11.91,-14.10,-3.38,3.87,-1.98,27.30,12.13,-26.19,29164
-5.74,1.41,-14.89,-2.90,3.60,-3.01,26.06,15.87,-18.94,29198
-1.91,0.38,-14.39,-1.58,2.52,-2.66,23.09,19.25,-16.08,29232
-4.64,-2.87,-6.94,-1.05,2.40,-1.58,20.48,20.94,-13.33,29266
-1.10,4.08,-1.89,-0.66,1.60,0.31,20.51,19.95,-11.24,29300
-1.95,25.62,0.71,-0.50,2.98,1.01,21.29,18.04,-8.65,29334
-3.08,13.32,-3.79,-2.02,3.41,-0.71,19.85,18.49,-6.08,29369
2.20,5.30,-14.66,-2.45,4.22,-1.76,15.65,19.82,-0.34,29403
-3.64,6.76,-19.99,-3.24,6.34,-3.89,9.41,20.71,5.14,29437
-7.05,-1.18,-19.76,-3.00,5.82,-5.54,-1.84,19.86,9.54,29471
-2.79,-3.77,-15.93,-2.41,4.96,-5.09,-10.68,17.68,10.93,29505
-2.09,3.99,-9.80,-2.69,5.00,-4.27,-18.23,14.05,9.84,29540
-3.72,4.74,-7.73,-3.88,6.48,-5.19,-27.11,6.40,6.34,29574
-1.95,4.50,-7.14,-4.75,7.40,-5.65,-33.79,-1.84,0.04,29608
0.56,1.41,-12.02,-4.99,7.30,-5.88,-37.12,-10.25,-9.11,29642
-6.04,0.17,-10.91,-4.85,6.80,-6.08,-36.61,-18.87,-20.89,29676
-5.33,1.89,-10.47,-4.80,6.24,-6.24,-32.14,-23.66,-30.55,29710
-3.49,2.69,-7.92,-4.83,5.94,-6.21,-23.60,-26.94,-40.08,29745
0.11,9.04,-8.57,-5.02,5.87,-5.84,-14.91,-26.06,-45.82,29779
6.02,11.01,-5.76,-5.39,5.94,-4.92,-5.88,-22.81,-51.62,29813
4.61,10.59,-0.36,-5.24,6.59,-4.10,5.66,-17.00,-52.46,29847
3.86,12.77,0.36,-4.34,6.20,-2.08,14.41,-11.65,-52.21,29881
-4.79,9.52,-9.56,-4.24,5.18,-0.97,19.70,-4.66,-48.48,29916
2.78,5.08,-13.95,-3.68,4.77,-1.61,24.52,1.05,-44.48,29950
5.10,11.01,-12.31,-2.57,4.20,-3.21,27.87,5.73,-38.72,29984
6.01,11.40,-12.35,-3.15,5.01,-5.54,28.56,13.68,-30.55,30018
10.68,13.13,-13.60,-4.05,5.82,-5.46,26.48,20.56,-21.92,30052
12.93,12.10,-16.28,-5.13,6.58,-4.62,22.71,25.75,-10.90,30086
7.35,11.84,-22.30,-5.43,7.04,-3.95,15.49,26.43,2.78,30121
7.83,9.80,-21.21,-4.92,6.62,-2.77,7.69,24.28,11.40,30155
10.86,7.15,-24.36,-4.48,6.84,-2.42,-2.03,19.01,17.48,30189
11.25,5.86,-16.59,-4.39,7.38,-2.49,-11.87,14.13,18.20,30223
10.49,5.44,-18.88,-4.09,8.17,-2.03,-21.46,7.73,16.44,30257
-1.37,-1.27,-22.07,-3.04,7.14,-2.55,-32.42,1.36,9.46,30291
5.40,-0.85,-22.33,-2.07,5.43,-1.10,-36.90,-2.10,3.16,30326
-9.78,3.29,-17.40,-0.68,3.93,-1.33,-39.36,-4.88,-2.66,30360
-13.38,3.73,-11.95,0.12,2.17,-3.00,-40.60,-8.71,-7.54,30394
-10.09,3.04,-11.12,-0.25,1.31,-2.60,-40.69,-11.55,-9.46,30428
-11.12,4.93,-6.85,-0.56,0.81,-1.93,-41.07,-14.81,-11.15,30462
0.46,8.00,-6.12,-0.15,-0.27,-0.26,-40.63,-16.02,-11.55,30497
-4.10,12.00,-0.21,-0.61,0.19,0.28,-41.00,-16.02,-11.65,30531
-2.92,5.29,-4.26,-1.64,1.43,-1.15,-41.76,-15.96,-13.39,30565
-3.07,0.67,-7.01,-1.34,1.51,-1.25,-41.25,-17.73,-17.10,30599
-3.29,11.22,-5.48,-1.03,1.29,-0.95,-40.25,-19.75,-18.84,30633
-0.32,8.67,-3.30,-1.68,1.76,-2.16,-40.08,-21.56,-22.08,30667
5.87,11.69,-4.33,-2.53,2.52,-2.70,-38.00,-24.42,-26.95,30702
7.30,18.23,-5.25,-4.87,4.59,-3.34,-34.24,-26.24,-36.57,30736
-0.78,20.99,-16.59,-7.24,6.73,-4.64,-27.64,-24.52,-45.83,30770
-2.62,17.69,-24.56,-6.91,6.51,-5.56,-19.15,-20.26,-52.43,30804
14.23,-28.03,-14.04,-6.39,7.26,-4.23,-8.49,-13.46,-57.06,30838
17.55,18.45,-11.43,-3.75,5.04,-2.34,-0.72,-8.78,-57.78,30873
6.83,9.07,-7.04,-3.40,6.54,-2.42,8.90,-3.38,-56.31,30907
5.13,11.03,-8.37,-2.22,4.06,0.86,15.97,-1.67,-54.09,30941
-7.47,11.93,-8.43,-2.18,3.84,1.51,22.19,-0.12,-51.46,30975
-14.46,0.72,-10.49,-1.69,2.25,1.89,25.88,0.18,-48.51,31009
-11.63,1.30,-12.60,-0.85,1.76,0.44,28.33,0.18,-45.83,31043
-9.05,3.52,-14.48,0.18,1.10,-1.05,30.21,0.23,-44.08,31078
-6.98,10.78,-13.49,-0.02,1.43,-3.28,30.47,3.00,-42.18,31112
-7.98,1.40,-8.68,-0.17,0.68,-2.82,29.95,6.78,-40.53,31146
-6.63,9.17,-7.80,-0.50,0.14,-1.49,28.81,9.38,-39.96,31180
-0.61,2.31,-2.42,-1.25,0.35,-0.68,28.14,10.98,-38.02,31214
8.73,14.63,5.94,-1.39,0.67,1.01,28.54,11.46,-36.58,31249
-1.46,23.46,2.93,-3.83,4.39,-1.51,30.77,13.56,-30.06,31283
15.02,5.70,-21.83,-5.20,6.64,-4.82,28.79,19.61,-18.97,31317
14.72,3.20,-33.05,-4.50,6.59,-3.98,23.93,22.55,-5.88,31351
8.01,8.46,-23.45,-2.80,4.98,-2.55,19.39,23.14,0.82,31385
-0.42,7.90,-7.63,-3.20,5.22,-2.02,13.99,22.39,6.81,31419
-1.85,1.27,-6.87,-4.27,7.00,-2.09,5.42,19.00,14.32,31454
-1.03,3.24,-15.28,-5.30,9.52,-3.14,-6.31,14.50,17.35,31488
-0.29,-2.53,-22.99,-3.63,7.23,-1.98,-17.87,8.45,16.94,31522
-0.26,-3.06,-20.25,-0.07,1.73,1.08,-20.26,8.11,15.26,31556
-15.34,8.31,-3.34,1.95,-0.63,1.22,-19.28,10.03,14.83,31590
-12.48,14.30,-3.56,2.42,-1.20,-0.25,-17.82,11.50,13.87,31625
-4.18,2.49,-9.81,1.08,0.36,-3.08,-19.69,11.91,11.85,31659
-1.51,12.13,-2.70,-0.06,0.76,-1.04,-21.13,10.64,12.42,31693
-3.25,23.30,2.00,-1.96,2.44,-1.76,-24.14,8.83,10.64,31727
-1.43,7.21,-8.56,-4.49,4.89,-4.20,-30.20,3.57,8.80,31761
1.32,-1.17,-14.07,-3.96,4.71,-4.40,-35.62,-5.45,3.39,31795
2.06,1.49,-7.91,-3.27,3.96,-3.40,-38.25,-11.93,-2.10,31830
5.16,18.92,-4.93,-4.68,4.98,-3.56,-39.24,-17.10,-11.05,31864
3.54,12.00,-10.47,-6.38,6.55,-5.22,-37.83,-24.13,-21.72,31898
2.49,4.79,-19.89,-6.55,6.33,-4.83,-32.96,-27.74,-33.53,31932
2.66,19.79,-21.62,-6.67,6.14,-3.71,-24.77,-26.62,-45.83,31966
8.77,15.58,-20.05,-7.53,7.91,-4.15,-15.35,-21.70,-53.65,32000
9.70,11.56,-21.73,-7.22,9.01,-4.44,-2.47,-13.34,-58.30,32035
20.48,4.94,-20.36,-5.06,8.02,-2.36,11.85,-5.26,-55.67,32069
11.32,6.29,-21.79,-4.28,7.13,-1.22,21.12,-0.72,-49.59,32103
1.52,2.54,-15.89,-4.05,6.17,-0.04,28.87,3.30,-41.04,32137
-5.47,4.56,-19.47,-3.55,5.20,0.73,32.51,4.71,-35.14,32171
-5.45,-1.10,-24.13,-2.68,4.71,-1.26,34.07,6.59,-27.92,32206
-7.01,-2.72,-26.16,1.36,1.86,-2.30,34.08,9.28,-24.73,32240
-10.68,8.37,-13.14,1.56,0.82,-2.18,32.68,10.35,-24.39,32274
-15.13,26.00,-4.97,-0.79,1.02,-4.09,30.30,14.85,-22.07,32308
1.58,-2.30,-10.52,-3.02,1.99,-4.19,24.60,21.53,-18.66,32342
1.53,10.39,-8.55,-2.41,1.62,-0.87,22.81,23.02,-14.18,32376
-4.79,9.92,-4.38,-3.96,3.69,-2.57,19.83,23.95,-7.10,32411
-1.76,0.75,-13.23,-4.40,4.92,-4.12,13.77,25.24,1.21,32445
-2.10,3.04,-21.52,-3.97,4.95,-4.37,6.11,24.86,6.49,32479
-0.08,-3.57,-17.06,-4.79,6.21,-5.34,-4.84,20.65,11.75,32513
-2.89,-3.50,-16.16,-5.27,7.54,-5.11,-16.27,15.13,12.76,32547
-7.07,0.71,-6.08,-5.63,9.41,-5.99,-28.91,3.84,8.49,32582
-8.35,-2.31,-9.01,-4.99,9.18,-5.77,-36.17,-6.94,-2.56,32616
-6.80,0.88,-6.41,-4.01,7.13,-4.22,-38.56,-13.74,-11.75,32650
-9.78,4.55,-5.24,-2.91,5.73,-3.83,-37.58,-19.96,-21.98,32684
-4.01,4.38,-6.47,-3.26,6.05,-5.47,-34.11,-24.33,-30.30,32718
0.61,11.70,-4.48,-3.45,6.12,-5.63,-28.15,-27.62,-38.64,32752
6.32,16.66,-2.62,-4.63,6.73,-6.66,-16.90,-28.65,-46.74,32787
18.53,16.24,-5.85,-6.08,7.70,-6.74,-5.32,-24.38,-52.44,32821
22.85,15.91,-11.99,-7.96,10.75,-7.06,12.20,-12.32,-52.91,32855
16.43,13.71,-17.40,-7.09,10.15,-7.10,23.46,0.41,-44.99,32889
16.89,12.57,-22.69,-5.76,8.43,-6.41,27.42,10.80,-34.43,32923
17.53,8.58,-20.60,-4.57,6.36,-4.75,26.81,19.13,-22.24,32958
14.72,12.24,-19.80,-5.03,7.05,-3.96,23.09,22.61,-13.08,32992
9.85,13.93,-20.04,-5.06,7.47,-4.40,17.19,24.76,0.54,33026
-1.28,0.98,-25.76,-4.13,7.01,-4.59,5.79,24.19,6.88,33060
15.82,0.73,-9.82,-2.66,4.81,-2.96,-2.08,22.10,10.45,33094
9.40,4.56,-19.62,-3.36,5.21,-2.34,-10.20,17.67,12.67,33128
10.75,10.06,-14.26,-3.87,5.15,-1.51,-16.62,13.55,12.22,33163
1.91,7.23,-18.44,-3.08,4.89,-0.85,-21.79,10.07,7.72,33197
-17.09,5.86,-35.10,-0.94,2.68,-1.88,-25.68,7.25,9.84,33231
-1.33,-25.94,4.23,-0.95,1.19,0.40,-26.88,6.28,8.90,33265
-33.52,20.76,-21.87,-0.94,3.58,1.00,-27.67,6.65,6.91,33299
0.95,3.72,-5.05,-1.22,1.61,-0.76,-30.04,5.41,5.48,33333
-5.21,3.00,-7.78,-0.36,0.59,0.55,-31.63,4.14,3.57,33368
-4.90,7.79,-2.27,0.26,-1.55,0.99,-30.84,6.58,5.41,33402
-4.52,7.00,-7.00,1.10,-0.90,0.04,-29.68,6.78,5.82,33436
-3.83,4.88,-8.68,1.24,-1.02,-1.08,-28.37,6.72,6.64,33470
-1.28,7.57,-7.53,1.15,-0.93,-1.24,-27.43,5.82,6.50,33504
0.84,7.34,-10.57,-0.71,0.05,-1.37,-28.03,3.95,6.71,33539
-1.55,8.89,-7.28,-2.33,1.03,-1.52,-28.71,0.25,6.85,33573
-2.23,3.93,-12.09,-4.03,2.91,-2.04,-30.82,-5.13,4.91,33607
-4.05,9.67,-7.45,-4.23,3.48,-1.61,-33.32,-10.11,1.01,33641
1.51,4.70,-11.22,-4.27,4.08,-1.69,-35.55,-14.10,-4.00,33675
-1.16,6.83,-11.44,-4.05,4.29,-1.69,-36.47,-18.08,-11.14,33709
-3.28,9.46,-9.92,-3.97,4.84,-1.63,-37.47,-21.19,-19.37,33744
2.25,10.24,-12.86,-4.00,4.71,-1.42,-36.60,-22.14,-28.15,33778
0.38,6.02,-13.45,-4.15,5.08,-1.35,-33.25,-21.53,-36.83,33812
-3.40,12.17,-13.61,-4.15,5.70,-1.44,-28.63,-19.89,-44.52,33846
0.38,5.42,-15.66,-4.42,5.72,-1.26,-22.20,-17.25,-49.85,33880
-4.20,6.15,-13.11,-4.18,6.32,-1.58,-14.28,-12.12,-54.87,33915
-8.59,7.69,-12.62,-4.11,6.02,-1.72,-5.98,-8.01,-56.49,33949
-11.19,3.88,-10.25,-4.04,5.45,-1.11,1.40,-2.81,-55.99,33983
-7.35,7.13,-7.56,-4.03,6.30,-1.89,9.40,3.67,-53.60,34017
-9.64,2.04,-7.53,-3.61,5.13,-1.57,15.67,7.66,-48.63,34051
-11.96,4.71,-2.92,-2.27,3.13,-0.80,19.88,11.24,-43.74,34085
-12.54,3.53,1.15,-0.81,1.65,-0.45,20.67,12.73,-42.44,34120
-6.24,5.45,0.77,-0.47,2.06,-0.95,22.17,13.24,-39.67,34154
-5.35,11.01,-0.01,-1.18,3.19,-1.31,23.49,15.61,-36.50,34188
-5.47,10.76,-1.90,-1.63,3.00,-1.11,23.98,16.92,-32.56,34222
-11.60,7.73,0.40,-1.45,2.29,-0.89,24.23,18.59,-28.12,34256
-7.04,7.29,2.28,-0.53,1.34,-0.42,24.82,19.44,-26.44,34291
-8.15,9.50,2.34,-0.57,1.75,-0.75,24.48,20.51,-24.09,34325
-3.62,8.64,0.97,-1.50,2.56,-1.29,23.11,21.92,-20.10,34359
-2.25,8.75,-4.60,-2.14,3.03,-1.42,22.38,23.68,-15.33,34393
-4.07,7.04,-10.89,-1.64,2.50,-1.05,21.09,24.29,-10.22,34427
-4.49,4.76,-9.63,0.35,0.25,0.42,21.12,24.55,-10.44,34461
-4.89,8.72,-0.92,0.82,-0.50,1.08,21.98,23.76,-11.25,34496
-5.91,9.53,0.06,0.04,0.22,0.45,22.90,23.55,-11.12,34530
-5.11,8.79,-5.41,-0.41,0.54,-0.05,23.06,23.06,-10.38,34564
-4.44,7.37,-6.35,-0.27,-0.12,0.21,23.40,23.41,-9.49,34598
-2.94,9.11,-3.05,0.18,-0.72,0.61,23.69,22.61,-10.17,34632
-1.76,9.21,-4.25,0.10,-0.35,0.30,24.29,22.41,-10.36,34666
-2.35,8.96,-4.38,0.29,-0.58,0.48,24.64,21.70,-10.68,34701
-1.25,9.94,-5.29,0.74,-1.35,0.99,25.65,21.05,-12.35,34735
-0.97,11.53,-5.72,1.00,-1.72,1.20,26.91,19.89,-14.28,34769
-1.43,9.41,-4.24,0.85,-1.93,1.24,28.38,18.66,-18.11,34803
-4.59,5.34,-2.37,1.16,-2.25,1.31,28.92,17.11,-20.86,34837
1.20,7.31,-4.25,1.82,-1.46,1.13,29.74,14.73,-23.08,34872
1.22,7.28,-2.41,1.41,0.57,0.87,30.50,13.08,-24.12,34906
-1.74,6.90,-3.68,1.20,0.95,1.21,31.03,12.00,-23.69,34940
-2.22,7.41,-3.35,0.80,0.71,1.51,32.67,9.34,-22.68,34974
-4.57,6.16,-1.98,0.48,-0.15,1.75,33.24,7.76,-23.24,35008
9.51,7.40,-7.34,-0.14,-3.42,1.09,33.76,4.84,-29.58,35042
-11.04,11.89,4.62,0.60,0.49,-2.18,32.34,5.77,-25.52,35077
-1.25,6.10,-7.95,1.95,-1.47,-0.56,32.13,6.59,-28.02,35111
-4.56,10.02,-2.96,2.06,-1.99,0.65,31.09,4.19,-31.91,35145
-5.40,9.68,-4.93,0.96,-1.31,0.45,30.44,2.97,-33.79,35179
-7.59,11.04,-2.58,-0.20,-0.76,1.05,29.86,2.54,-35.53,35213
-9.04,11.50,-2.31,-1.12,-0.11,0.97,29.82,2.28,-34.62,35248
-6.09,6.48,-5.86,-1.81,0.21,0.49,29.61,2.62,-33.89,35282
-5.30,4.85,-5.92,-1.62,-0.11,0.33,29.98,4.15,-33.00,35316
-5.31,4.66,-6.24,-1.02,-0.32,0.06,29.95,4.60,-33.13,35350
-3.50,6.04,-5.89,-0.35,-0.78,-0.03,28.90,5.32,-33.08,35384
-2.15,7.56,-4.41,0.21,-0.99,-0.17,28.31,5.20,-34.26,35418
-2.54,8.95,-2.96,0.44,-0.99,-0.20,27.71,4.91,-35.81,35453
-2.15,10.49,-3.14,0.32,-1.13,-0.03,27.16,5.25,-36.51,35487
-3.33,11.38,-7.93,-0.33,-1.72,0.04,25.43,5.93,-38.86,35521
1.53,12.09,-6.83,-0.10,-4.59,1.52,23.21,5.32,-42.28,35555
1.31,12.12,-8.68,0.75,-4.66,0.31,18.88,4.05,-46.92,35589
12.32,14.86,-16.35,0.38,-4.10,-0.44,14.92,4.53,-49.63,35624
-3.49,10.13,-4.61,-0.16,-4.66,-0.78,9.15,4.15,-52.28,35658
-4.78,2.46,-13.22,1.60,-0.76,-3.78,5.41,4.50,-54.08,35692
-5.13,6.89,-1.96,0.45,-0.29,-3.92,4.49,4.02,-55.25,35726
-0.25,1.73,-2.02,-0.64,2.27,-3.88,4.60,6.17,-54.28,35760
-7.87,0.11,-2.73,-0.74,3.51,-3.59,7.45,8.11,-53.39,35794
-6.05,4.24,0.05,-0.86,2.95,-2.68,10.48,10.99,-50.72,35829
-4.41,5.16,1.63,-1.23,3.17,-2.04,12.82,13.52,-49.71,35863
-3.66,4.35,0.62,-1.24,2.96,-1.26,15.73,15.52,-47.11,35897
-8.32,3.36,-0.59,-0.96,2.80,-0.23,18.82,17.04,-43.51,35931
-7.78,4.86,-0.67,-0.57,1.44,1.09,21.66,17.58,-40.97,35965
-8.75,5.44,-2.46,-0.50,0.55,1.76,24.26,15.77,-40.05,36000
-8.27,6.82,-3.86,-0.30,0.17,2.00,26.47,13.87,-39.56,36034
-8.85,8.37,-4.39,-0.06,0.52,1.43,28.16,12.34,-38.54,36068
-8.76,6.98,-5.04,-0.02,0.39,1.08,29.33,10.73,-37.28,36102
-8.12,6.02,-4.29,0.20,0.15,0.64,30.42,9.62,-37.47,36136
-7.53,6.61,-4.31,0.30,-0.20,0.52,31.23,8.56,-37.14,36170
-6.41,7.06,-4.93,0.35,-0.59,0.39,31.26,7.63,-37.33,36205
-4.72,7.35,-4.98,0.32,-0.92,0.28,31.07,7.28,-38.22,36239
-6.00,7.16,-4.97,0.43,-1.24,0.30,30.39,5.92,-39.32,36273
-5.22,8.00,-4.16,0.24,-1.89,0.67,29.39,5.06,-40.94,36307
-3.53,9.80,-3.24,-0.00,-1.21,0.29,28.30,3.93,-42.25,36341
-4.48,8.25,-3.45,-0.29,-1.23,0.21,27.81,3.43,-42.97,36375
-1.40,6.48,-1.88,-0.59,-0.62,-0.03,26.67,3.46,-43.12,36410
-1.16,10.52,-3.96,-0.93,0.13,-0.26,27.51,3.71,-43.48,36444
0.18,10.71,-2.45,-2.21,1.63,-0.71,27.95,5.09,-40.02,36478
-1.17,11.12,-6.53,-4.05,3.86,-1.70,30.43,7.86,-35.30,36512
0.64,7.87,-11.63,-4.94,5.41,-2.63,30.17,12.70,-24.19,36546
-0.54,4.33,-17.78,-3.71,5.09,-3.57,27.92,16.75,-16.18,36581
-4.33,0.27,-17.05,-1.72,3.27,-2.64,24.67,19.82,-9.62,36615
-4.81,3.25,-8.01,-0.58,2.01,-1.53,21.67,20.14,-8.42,36649
-3.59,6.54,-2.25,-1.02,2.48,-1.31,20.45,20.96,-5.63,36683
-7.38,8.73,-2.12,-2.07,3.77,-1.59,16.46,20.84,-1.96,36717
-1.94,9.23,-4.44,-2.21,3.84,-1.27,13.29,20.97,1.80,36751
-3.36,7.94,-10.74,-2.03,4.24,-1.58,8.74,20.33,5.38,36786
-2.41,1.74,-11.08,-1.62,3.50,-1.60,2.88,20.93,8.08,36820
-2.04,2.33,-11.13,-1.03,3.21,-1.09,-0.95,20.18,9.37,36854
-2.58,8.20,-11.13,-2.18,4.75,-2.77,-7.47,18.42,11.27,36888
-4.97,2.55,-12.02,-3.06,5.94,-4.90,-15.93,15.99,10.57,36922
-0.80,-1.09,-11.91,-2.76,5.77,-5.15,-24.36,10.41,8.07,36957
-2.09,6.17,-8.74,-2.73,5.57,-4.80,-32.08,2.70,2.82,36991
-0.02,12.28,-4.02,-3.78,5.91,-5.08,-36.36,-5.28,-3.92,37025
0.39,10.50,-3.79,-5.49,7.08,-5.70,-38.16,-13.86,-14.98,37059
2.53,9.89,-11.71,-6.14,7.73,-6.85,-36.07,-20.56,-26.56,37093
0.87,9.37,-13.00,-6.38,7.40,-7.25,-29.11,-25.24,-37.27,37127
0.59,8.34,-13.30,-5.73,5.91,-6.24,-18.84,-24.80,-46.24,37162
5.12,10.78,-12.60,-5.36,4.91,-5.14,-11.25,-21.48,-50.83,37196
9.33,0.46,-17.81,-5.55,5.86,-3.74,-2.86,-16.27,-54.25,37230
2.51,7.28,-0.81,-5.24,5.65,-2.77,6.65,-8.89,-54.08,37264
8.89,9.90,4.19,-4.35,6.40,-2.01,14.83,-3.81,-51.30,37298
-3.74,8.46,-9.21,-3.19,4.60,-1.96,21.24,1.18,-46.86,37333
1.89,1.21,-11.24,-2.64,2.30,-2.14,22.80,5.92,-43.95,37367
3.74,0.00,-7.76,-2.75,2.43,-1.91,23.44,9.49,-40.65,37401
-18.86,17.98,-24.20,-2.86,3.47,-2.27,25.24,14.24,-35.62,37435
-1.43,11.75,-8.19,-1.34,0.64,-2.56,23.60,17.54,-34.01,37469
-3.65,4.16,-3.50,-2.68,1.53,-0.99,22.89,19.57,-30.74,37503
-5.46,15.14,-11.75,-3.70,3.56,-0.71,25.23,21.37,-24.61,37538
-7.35,7.61,-0.22,-2.83,2.80,-1.24,24.38,24.22,-18.33,37572
-1.46,8.33,-6.04,-2.43,3.18,-0.78,23.84,25.04,-11.84,37606
-2.94,6.09,-10.68,-1.97,3.46,-1.39,22.29,24.83,-6.34,37640
5.40,5.78,-15.65,-1.72,2.73,-0.58,20.43,24.71,-2.29,37674
-2.94,7.16,-8.21,-0.84,2.01,0.35,19.07,23.76,1.78,37708
-3.18,9.41,-3.11,-0.83,1.79,0.20,18.42,23.00,3.99,37743
-3.87,10.94,-3.22,-1.19,2.66,-0.39,16.09,22.11,7.83,37777
-4.35,8.93,-14.28,-2.01,3.75,-1.53,11.96,21.22,10.36,37811
2.77,3.35,-11.23,-1.22,2.00,-0.20,9.08,20.17,12.64,37845
3.73,7.62,-5.95,-1.03,1.46,-0.05,7.21,19.32,15.24,37879
-0.97,10.46,-8.73,-1.31,2.58,-0.74,5.01,17.98,16.50,37914
0.32,7.87,-5.12,-1.48,2.93,-0.88,1.01,16.97,17.98,37948
0.77,6.91,-8.59,-1.48,3.05,-1.10,-4.66,14.41,18.65,37982
1.96,8.35,-11.41,-1.47,3.15,-1.10,-8.49,12.88,19.32,38016
-0.01,7.76,-11.57,-1.57,3.12,-1.18,-13.37,10.17,19.07,38050
-0.03,9.23,-11.36,-1.77,3.57,-1.35,-18.46,7.82,18.12,38084
1.27,10.25,-10.24,-1.74,3.72,-1.41,-22.92,5.31,15.58,38119
0.43,9.06,-9.91,-1.88,3.96,-1.29,-28.33,2.38,12.60,38153
-0.35,9.05,-11.37,-1.86,4.20,-1.31,-32.96,-0.76,8.73,38187
-1.80,7.79,-11.04,-1.67,4.14,-1.38,-36.96,-3.45,3.67,38221
-1.45,7.02,-11.30,-1.50,4.04,-1.40,-39.27,-5.93,-1.77,38255
-0.78,6.57,-10.73,-1.46,3.82,-1.22,-40.43,-7.34,-6.71,38290
-1.37,7.87,-10.50,-1.54,4.31,-1.42,-41.19,-10.00,-14.09,38324
-6.74,10.68,-7.71,-1.13,4.10,-1.36,-40.88,-11.56,-19.56,38358
-3.80,5.89,-7.74,-0.99,4.16,-1.28,-39.97,-13.23,-25.02,38392
-4.00,9.74,-5.02,-0.92,3.50,-1.03,-38.64,-14.43,-31.10,38426
-2.80,8.61,-4.90,-0.53,2.96,-0.89,-36.58,-14.95,-33.97,38460
-1.62,7.79,-6.27,-0.41,2.21,-0.64,-34.46,-16.09,-36.60,38495
-0.52,7.78,-5.62,-0.02,1.33,-0.25,-33.10,-16.28,-39.08,38529
-1.12,8.47,-4.41,0.08,1.06,-0.26,-32.48,-16.34,-39.81,38563
-2.20,8.15,-4.16,0.12,0.85,-0.09,-31.94,-16.37,-41.27,38597
-3.12,8.43,-3.77,0.41,0.31,0.21,-31.69,-16.66,-41.41,38631
-4.13,7.94,-3.42,0.63,-0.48,0.68,-31.66,-16.43,-41.38,38666
-4.05,7.82,-3.75,0.82,-0.75,0.77,-32.62,-16.28,-40.57,38700
-3.04,9.27,-2.44,0.73,-0.69,0.57,-33.89,-16.38,-39.64,38734
-2.16,8.40,-3.20,0.67,-0.04,-0.22,-33.73,-17.01,-40.11,38768
-3.20,8.71,-4.07,0.71,0.79,-0.63,-33.02,-18.62,-39.73,38802
-1.46,8.68,-4.33,0.61,0.03,-0.24,-33.02,-19.32,-39.67,38836
-2.31,9.54,-3.08,0.60,0.05,0.08,-32.91,-19.09,-40.54,38871
-1.89,9.30,-3.86,0.27,-0.11,0.43,-33.43,-18.94,-40.41,38905
-3.11,7.90,-5.59,0.01,-0.38,0.96,-33.97,-17.85,-40.68,38939
-2.62,6.96,-5.59,0.07,-0.72,1.22,-34.95,-15.76,-40.02,38973
-1.05,7.51,-5.78,0.12,-0.65,1.08,-35.30,-14.40,-39.70,39007
0.06,7.23,-5.97,0.23,-0.64,0.88,-36.38,-13.20,-38.83,39041
-0.28,8.29,-5.41,0.33,-0.71,0.82,-36.88,-11.97,-38.21,39076
0.37,9.69,-3.12,0.39,-0.93,0.93,-37.47,-10.79,-36.60,39110
-2.15,10.30,-1.66,0.44,-1.33,1.14,-38.69,-9.38,-35.46,39144
-2.70,9.21,-1.99,0.33,-2.11,1.60,-39.87,-7.59,-33.22,39178
-4.76,8.76,-4.70,0.45,-2.63,1.59,-40.60,-5.58,-29.00,39212
-2.55,6.99,-6.95,0.46,-2.54,1.19,-41.71,-3.93,-26.79,39247
-0.36,7.03,-7.16,0.44,-1.78,0.62,-41.77,-3.00,-24.44,39281
-2.87,7.68,-5.46,0.45,-1.01,0.03,-41.96,-2.16,-22.48,39315
-0.89,8.16,-5.56,0.46,-0.87,-0.26,-41.92,-2.48,-21.46,39349
0.22,8.62,-5.30,0.43,-0.88,-0.22,-41.87,-2.88,-20.68,39383
0.68,9.68,-3.79,0.40,-0.89,0.12,-41.63,-2.54,-19.42,39417
0.18,10.32,-3.82,0.36,-1.08,0.50,-41.44,-1.80,-18.75,39452
-0.19,8.82,-4.49,0.37,-1.33,0.67,-40.78,-0.47,-16.84,39486
0.43,8.75,-4.11,0.38,-1.46,0.71,-40.41,0.34,-14.86,39520
3.47,10.74,-5.50,0.82,-2.74,1.05,-39.80,1.42,-11.47,39554
-0.33,8.85,-3.75,0.77,-1.80,0.69,-38.98,2.53,-9.06,39588
-2.68,9.68,-1.73,0.68,-1.38,0.61,-38.25,3.27,-8.01,39623
-6.85,9.03,-2.85,0.24,-1.08,0.76,-37.24,3.86,-6.20,39657
-4.21,10.82,-3.24,0.46,-2.16,1.16,-35.40,4.75,-4.75,39691
2.16,9.58,-7.02,0.25,-1.93,0.12,-34.17,4.62,-2.92,39725
2.22,10.54,-5.01,-0.76,-1.17,0.13,-33.16,4.75,-1.21,39759
6.07,12.45,-2.85,-1.48,-0.46,-0.02,-32.56,3.49,1.42,39793
3.05,12.48,-7.88,-2.98,0.93,-0.35,-33.22,0.95,0.31,39828
4.59,2.48,-5.88,-3.94,3.73,-1.15,-35.12,-1.75,-2.53,39862
3.74,3.39,-13.90,-2.69,5.89,-2.44,-37.69,-5.52,-9.15,39896
-3.78,6.10,-13.66,-1.91,3.24,-1.34,-39.36,-8.86,-15.10,39930
3.61,8.29,-6.26,-1.54,2.02,-0.61,-39.64,-10.03,-16.98,39964
-0.52,9.58,-7.39,-1.22,3.69,-1.70,-39.20,-12.61,-25.81,39999
1.76,7.41,-6.11,-0.95,2.72,-1.82,-37.85,-15.64,-27.43,40033
-0.90,7.10,-7.25,-1.20,3.35,-1.89,-37.01,-17.49,-31.45,40067
-5.43,5.96,-12.91,-1.78,4.18,-2.04,-34.16,-19.38,-37.53,40101
1.94,15.45,-7.52,-1.56,3.29,-1.35,-31.50,-20.07,-42.11,40135
0.33,9.84,-7.70,-1.49,3.69,-1.66,-27.58,-20.04,-46.20,40169
2.79,9.17,-7.99,-2.08,3.78,-1.40,-23.11,-18.88,-51.55,40204
5.30,12.24,-9.70,-2.27,4.18,-1.20,-18.68,-17.51,-55.03,40238
1.21,9.99,-12.71,-2.48,5.29,-1.56,-8.59,-13.75,-58.43,40272
1.40,8.51,-14.06,-2.43,5.24,-0.98,-3.46,-10.52,-59.73,40306
-3.08,8.40,-11.89,-2.03,4.32,-0.11,2.78,-6.75,-59.40,40340
-3.04,10.16,-9.97,-2.28,3.75,0.16,9.22,-3.08,-57.07,40375
-1.54,9.41,-9.85,-1.85,4.49,-0.05,14.40,-0.25,-55.45,40409
-3.14,9.13,-9.41,-1.69,4.17,0.43,19.85,1.80,-51.08,40443
-2.69,7.53,-9.90,-1.18,3.25,1.15,25.14,2.34,-47.97,40477
-3.54,4.26,-11.29,-1.03,3.35,0.99,28.52,1.72,-43.88,40511
-1.35,6.82,-8.57,-0.64,3.08,0.81,31.92,1.39,-39.29,40545
-0.89,7.03,-7.95,-0.50,4.42,-0.70,35.08,1.26,-33.73,40580
-0.31,5.55,-13.12,-0.41,5.16,-1.84,36.93,3.20,-26.35,40614
-8.09,13.41,2.62,0.02,1.89,-0.66,37.45,4.00,-22.23,40648
7.27,19.04,-2.53,-0.62,1.13,1.40,37.58,2.53,-20.96,40682
-8.21,9.53,-11.25,-0.44,-2.34,3.01,37.91,-1.53,-22.73,40716
-13.10,-1.20,-17.00,2.31,-5.02,3.15,37.18,-6.28,-29.00,40750
-6.42,0.34,-16.11,4.70,-6.99,4.14,33.89,-13.67,-36.96,40785
-11.97,4.15,-13.67,5.50,-6.36,2.99,27.14,-22.27,-42.56,40819
3.93,27.25,5.09,4.96,-6.82,0.11,21.70,-26.72,-45.19,40853
-6.72,19.94,-2.64,1.14,1.35,-6.01,21.95,-25.72,-45.28,40887
-7.50,10.30,-7.14,-0.53,0.98,-6.65,27.35,-18.12,-43.69,40921
-7.29,3.53,-2.49,-0.72,1.19,-6.60,30.04,-11.87,-42.87,40956
-5.78,0.92,2.70,-1.95,1.50,-5.01,31.07,-2.97,-40.49,40990
-6.53,18.28,-3.11,-2.80,3.76,-6.00,31.99,4.46,-35.27,41024
-3.59,6.79,1.43,-5.17,5.56,-7.26,30.34,14.79,-26.64,41058
-6.40,6.38,-4.08,-5.34,5.99,-7.84,24.07,24.86,-14.78,41092
-11.34,1.33,0.54,-5.68,5.76,-7.75,14.03,29.76,-4.74,41126
-17.26,2.59,-0.51,-5.10,5.06,-7.07,3.10,30.27,4.81,41161
-12.21,6.08,0.29,-4.70,4.85,-6.43,-10.17,26.25,8.26,41195
-10.36,10.46,2.17,-3.84,4.01,-4.99,-18.82,21.21,10.98,41229
-2.70,13.22,-0.86,-2.94,3.08,-3.87,-26.56,14.54,11.30,41263
1.59,12.63,-5.18,-2.64,2.72,-3.23,-30.68,9.95,9.34,41297
1.14,6.44,-10.73,-1.83,1.74,-2.30,-33.54,5.76,8.55,41332
-3.43,5.56,-9.13,-0.67,0.46,-1.66,-35.52,2.92,7.16,41366
-2.73,3.39,-12.52,-0.84,-0.17,-1.26,-35.66,0.15,7.00,41400
-3.37,1.99,-10.65,-0.95,0.06,-1.44,-35.46,-2.65,6.91,41434
-5.35,3.06,-7.19,-0.71,-0.39,-1.19,-35.17,-5.07,7.72,41468
-9.82,3.79,-5.75,-1.16,0.95,-1.45,-35.36,-7.63,6.24,41502
-7.86,4.41,-4.44,-2.42,3.04,-2.40,-37.46,-12.16,2.27,41537
-6.44,3.01,-8.00,-3.52,4.14,-3.03,-39.29,-17.64,-3.62,41571
-7.75,1.03,-10.15,-3.80,4.69,-3.16,-40.59,-21.47,-10.80,41605
-9.41,1.54,-8.45,-3.83,4.71,-3.03,-39.26,-25.56,-20.94,41639
-6.68,2.46,-5.88,-4.48,6.14,-3.61,-35.75,-27.77,-31.47,41673
-6.76,-2.53,-11.51,-5.17,7.71,-4.95,-26.43,-29.48,-43.92,41708
-21.58,-3.31,-15.19,-4.15,7.29,-5.58,-15.16,-28.60,-51.10,41742
-20.34,-6.44,-6.28,-1.95,3.52,-5.16,-5.93,-27.96,-53.58,41776
-9.49,4.07,5.43,-1.51,2.60,-4.93,2.22,-26.00,-54.78,41810
-5.11,14.80,1.68,-2.20,4.10,-5.59,9.65,-22.35,-54.53,41844
-4.38,11.11,-0.49,-2.48,3.94,-4.74,16.56,-15.95,-52.75,41878
-8.15,10.52,-3.79,-2.16,3.42,-3.89,22.11,-10.51,-49.87,41913
-1.63,9.86,-6.98,-1.81,2.50,-3.43,25.55,-5.51,-47.53,41947
1.94,6.70,-13.04,-1.66,2.10,-3.34,27.96,-0.66,-44.30,41981
-1.14,7.52,-8.36,-1.27,1.42,-2.67,29.09,3.67,-42.79,42015
-11.76,5.02,-0.37,-1.15,1.07,-2.21,29.51,6.36,-41.06,42049
-8.72,6.15,-3.67,-1.72,1.81,-2.38,29.39,10.06,-38.18,42083
-3.76,5.66,-8.04,-2.34,3.02,-3.01,29.17,14.34,-32.68,42118
1.77,5.39,-11.65,-2.91,3.92,-3.54,27.67,20.26,-25.12,42152
-8.36,1.41,-12.96,-3.84,5.61,-4.39,25.15,24.82,-16.54,42186
-10.10,-0.33,-7.60,-3.90,5.73,-4.52,19.61,27.02,-7.63,42220
-16.17,-0.60,-8.47,-4.32,7.14,-5.32,9.46,28.14,3.01,42254
-17.98,-1.77,-8.52,-3.54,6.03,-5.38,-0.82,27.61,7.78,42289
-12.44,2.36,-3.43,-2.37,3.83,-4.81,-9.35,24.92,9.92,42323
-8.08,8.02,-1.81,-1.62,3.12,-4.98,-18.39,20.39,9.92,42357
1.15,8.72,-0.55,-1.53,2.89,-4.84,-24.77,17.14,8.58,42391
4.26,9.81,-7.02,-1.53,2.88,-4.49,-31.72,11.34,7.03,42425
-2.78,7.81,-8.66,-1.92,3.24,-4.25,-35.65,5.25,4.21,42459
-8.11,3.35,-7.42,-2.17,3.32,-3.79,-38.79,-0.51,-0.45,42494
-9.29,4.16,-4.33,-2.19,3.27,-3.72,-40.92,-7.73,-5.45,42528
-9.88,3.23,-5.07,-2.55,4.00,-4.14,-41.76,-13.29,-10.46,42562
-6.06,5.81,-5.51,-2.76,4.59,-4.57,-41.26,-20.05,-19.01,42596
-3.68,4.32,-8.79,-2.63,4.43,-4.76,-38.09,-25.33,-25.62,42630
-6.82,4.66,-6.86,-2.46,4.12,-4.62,-33.76,-30.15,-31.69,42665
-7.37,4.26,-7.83,-2.46,4.16,-4.67,-26.63,-33.46,-38.97,42699
-9.24,3.40,-5.32,-2.63,4.54,-4.76,-18.49,-34.98,-44.61,42733
-7.13,4.96,-6.08,-2.68,4.75,-4.92,-9.88,-34.13,-48.32,42767
-4.46,4.35,-7.96,-2.92,5.20,-5.38,1.61,-31.25,-51.32,42801
-6.84,2.95,-10.10,-2.83,5.05,-5.47,11.53,-27.07,-52.00,42835
-8.92,2.00,-8.69,-2.79,4.86,-5.37,21.16,-19.99,-50.07,42870
-9.99,2.33,-5.68,-2.67,4.77,-5.50,27.97,-13.02,-46.00,42904
-12.76,3.19,-5.16,-2.86,4.96,-5.83,32.77,-4.79,-40.28,42938
-13.65,1.71,-5.25,-3.12,5.35,-5.98,34.87,5.55,-32.05,42972
-9.94,6.08,-2.77,-2.83,4.66,-5.75,33.50,13.40,-24.52,43006
-9.58,5.99,-3.29,-2.75,4.18,-5.58,29.79,21.28,-15.35,43041
-6.31,8.07,-4.33,-2.30,3.43,-4.81,23.84,25.53,-10.01,43075
-3.95,10.34,-3.56,-1.84,2.93,-4.10,18.17,28.03,-6.37,43109
-2.31,8.16,-4.14,-1.94,2.72,-3.65,11.39,29.54,-1.62,43143
-2.74,9.85,-5.15,-2.23,3.38,-3.69,5.95,29.70,2.54,43177
-4.41,2.86,-10.12,-2.81,3.88,-3.74,-2.15,28.68,6.40,43211
-8.71,2.24,-10.36,-2.79,4.28,-4.01,-10.54,26.05,8.61,43246
-12.50,0.21,-5.24,-2.19,3.32,-3.55,-17.32,22.70,8.49,43280
-9.64,0.44,-6.97,-1.59,2.78,-3.84,-23.55,18.42,7.73,43314
-4.01,4.86,-4.53,-1.59,2.93,-4.13,-28.73,14.06,7.21,43348
-1.48,6.63,-3.49,-1.97,3.75,-4.70,-33.85,8.90,3.98,43382
-4.58,4.49,-8.03,-2.51,4.89,-5.25,-39.84,1.21,-2.38,43416
-10.80,0.68,-8.52,-2.99,5.39,-5.52,-42.31,-7.12,-9.54,43451
-16.65,-0.76,-7.85,-2.58,4.63,-5.00,-42.41,-17.90,-17.51,43485
-11.50,3.81,-4.48,-2.23,4.02,-4.64,-40.05,-21.38,-24.17,43519
-5.46,6.81,-4.26,-2.20,4.37,-4.98,-35.62,-26.57,-30.21,43553
-4.61,7.43,-5.22,-2.44,4.92,-5.49,-28.12,-31.98,-38.72,43587
-4.41,7.78,-6.37,-2.59,5.20,-5.76,-19.61,-34.26,-44.56,43622
-11.63,3.49,-8.06,-2.77,5.41,-5.80,-9.59,-34.00,-48.60,43656
-12.20,2.34,-7.24,-2.49,4.39,-5.39,2.22,-32.23,-51.14,43690
-8.37,3.66,-5.06,-1.99,3.63,-5.06,10.52,-28.75,-50.80,43724
-6.87,4.02,-5.66,-1.84,3.46,-5.17,18.68,-23.15,-49.77,43758
-3.00,8.08,-5.91,-1.91,3.72,-5.34,24.54,-17.47,-47.38,43792
-6.82,5.69,-7.30,-2.43,4.28,-5.35,29.58,-10.30,-44.18,43827
-10.90,4.33,-8.24,-2.48,4.17,-4.90,33.08,-1.29,-38.10,43861
-11.09,4.92,-3.22,-2.52,3.87,-4.56,33.73,5.26,-32.80,43895
-7.94,6.48,-3.72,-2.07,3.15,-4.17,33.67,11.12,-23.66,43929
-9.64,2.10,-4.28,-1.71,2.59,-3.89,31.29,17.20,-21.70,43963
-4.51,6.77,-5.26,-1.48,2.30,-3.86,28.43,20.72,-17.77,43998
-4.68,6.16,-7.14,-1.68,2.60,-4.03,23.74,25.29,-13.08,44032
-6.95,5.69,-4.69,-1.74,2.47,-3.83,19.37,28.05,-9.66,44066
-7.80,5.59,-4.04,-1.91,2.66,-3.67,13.97,29.54,-5.29,44100
-9.79,5.02,-1.63,-1.81,2.65,-3.43,8.04,30.52,-1.72,44134
-5.24,5.53,-5.03,-1.75,2.35,-3.19,2.48,30.66,1.30,44168
-3.72,7.21,-5.71,-1.59,2.42,-3.18,-3.81,30.27,4.02,44203
-5.13,8.19,-7.26,-1.28,1.97,-2.78,-8.81,28.68,5.22,44237
-3.84,6.17,-7.68,-1.21,1.64,-2.42,-12.34,27.23,6.47,44271
-6.57,6.47,-4.74,-0.76,0.90,-1.91,-16.21,25.46,6.68,44305
-2.82,7.32,-4.99,-0.53,0.64,-1.61,-17.80,24.22,6.28,44339
-2.20,7.33,-5.61,-0.64,1.03,-1.77,-19.86,22.38,6.46,44374
-2.74,5.24,-10.15,-1.11,1.76,-2.14,-23.57,20.43,5.74,44408
-4.29,4.32,-7.27,-1.15,1.99,-2.28,-26.50,17.99,5.50,44442
-8.96,2.10,-8.24,-1.06,1.12,-1.53,-29.64,15.48,4.95,44476
-11.76,2.28,-5.85,-0.78,0.56,-0.92,-30.36,13.59,4.84,44510
-9.43,1.95,-4.84,-0.75,0.98,-0.83,-31.57,12.36,3.90,44544
-2.50,5.56,-9.27,-1.23,2.11,-1.50,-33.82,10.30,2.81,44579
1.04,7.71,-7.92,-2.09,3.18,-2.49,-36.50,7.03,-0.47,44613
-1.99,5.81,-8.16,-2.53,4.18,-3.46,-39.97,1.02,-5.13,44647
-4.92,2.50,-8.77,-2.35,4.24,-4.04,-42.43,-4.88,-11.18,44681
-5.93,2.84,-8.18,-1.83,3.50,-3.97,-42.55,-9.76,-16.46,44715
-4.27,4.09,-6.07,-1.36,2.73,-3.93,-41.48,-15.89,-21.81,44750
-2.51,4.24,-7.00,-1.74,3.59,-4.95,-39.54,-21.40,-26.51,44784
-7.96,1.08,-10.51,-2.25,4.42,-5.76,-34.95,-26.56,-33.95,44818
-7.22,0.19,-11.47,-2.61,4.74,-6.37,-26.45,-32.37,-39.97,44852
-8.56,3.17,-7.01,-2.67,4.52,-6.19,-17.66,-34.38,-45.75,44886
-10.96,2.58,-4.61,-2.83,4.65,-6.29,-5.26,-34.23,-49.18,44920
-9.29,5.61,-4.04,-3.06,4.99,-6.35,5.09,-30.34,-50.85,44955
-11.31,6.06,-5.60,-3.16,5.24,-6.16,14.91,-24.25,-50.29,44989
-9.25,6.70,-6.59,-2.82,4.61,-5.61,24.17,-15.93,-47.56,45023
-7.28,6.13,-4.57,-1.87,2.70,-4.03,28.08,-9.56,-44.91,45057
-3.61,8.88,-1.88,-1.21,1.36,-2.86,30.33,-5.32,-42.66,45091
-0.66,9.59,-3.00,-0.96,1.05,-2.25,31.35,-2.21,-41.22,45125
0.25,9.74,-7.09,-0.99,1.28,-2.02,31.10,1.13,-39.02,45160
-1.63,7.82,-7.89,-0.99,1.11,-1.67,31.82,3.96,-36.63,45194
-5.99,3.69,-7.66,-0.84,0.50,-1.07,32.02,5.86,-36.50,45228
-7.21,3.49,-5.93,-0.59,0.29,-0.85,31.77,7.16,-35.21,45262
-5.84,3.88,-5.38,-0.67,0.28,-0.85,32.39,8.75,-34.01,45296
-6.27,3.09,-7.27,-0.98,1.09,-1.34,32.13,9.76,-32.53,45331
-6.59,4.09,-5.41,-1.14,1.62,-1.71,31.72,12.61,-30.28,45365
-8.68,4.01,-5.30,-1.39,2.39,-2.16,31.10,15.65,-25.68,45399
-6.37,3.84,-6.26,-1.46,2.73,-2.52,30.25,18.06,-21.79,45433
-6.13,3.96,-8.10,-1.69,3.05,-2.90,27.51,21.72,-16.62,45467
-3.70,5.08,-7.91,-1.80,2.81,-3.16,24.61,24.42,-12.12,45501
-4.68,5.57,-6.44,-1.55,2.43,-3.27,20.01,27.32,-7.50,45536
-6.16,5.78,-4.81,-1.59,2.43,-3.30,15.10,28.00,-4.69,45570
-9.95,4.43,-2.40,-1.60,2.62,-3.26,10.25,29.35,-0.41,45604
-8.49,5.32,-2.94,-1.72,3.01,-3.52,3.96,29.74,2.70,45638
-7.21,6.34,-3.36,-1.71,3.21,-3.61,-2.56,28.59,4.28,45672
-1.19,8.76,-5.04,-1.50,2.89,-3.49,-8.43,27.19,6.97,45707
0.77,7.94,-9.37,-1.41,2.53,-3.26,-14.85,25.39,6.59,45741
-1.05,6.41,-6.70,-1.33,2.42,-3.03,-19.60,22.73,6.55,45775
-7.65,5.33,-6.28,-1.38,2.60,-2.92,-24.73,19.83,5.74,45809
-6.90,3.62,-5.58,-1.49,2.69,-2.90,-29.26,16.81,4.30,45843
-3.67,5.81,-7.86,-1.69,3.53,-3.32,-33.65,12.50,2.09,45877
-7.18,2.98,-9.37,-2.09,4.27,-3.67,-38.32,7.35,-2.34,45912
-6.19,5.87,-8.52,-1.99,4.33,-3.74,-41.68,2.18,-7.21,45946
-10.08,2.82,-7.29,-2.20,4.86,-4.02,-43.09,-4.91,-15.32,45980
-11.59,4.15,-6.12,-2.05,4.91,-4.33,-43.00,-10.41,-21.57,46014
-14.98,5.34,-5.27,-1.48,4.50,-4.70,-40.57,-15.80,-28.91,46048
-9.37,7.49,-7.41,-1.05,3.82,-5.03,-36.70,-22.19,-35.88,46083
-1.65,9.45,-5.45,-1.06,3.66,-5.29,-30.39,-26.79,-39.74,46117
-0.31,9.19,-3.24,-1.46,4.48,-5.68,-19.66,-31.64,-44.52,46151
-5.51,8.93,-6.46,-2.05,5.29,-6.17,-11.79,-32.91,-48.47,46185
-13.64,5.21,-10.67,-2.35,5.56,-6.75,-0.61,-31.85,-50.41,46219
-16.10,-3.30,-6.47,-1.62,3.80,-6.28,10.98,-27.17,-51.04,46253
-14.04,1.09,-1.15,-1.28,2.67,-5.41,17.17,-22.51,-50.48,46288
-4.41,8.77,-1.34,-1.21,2.17,-4.90,21.81,-17.89,-49.06,46322
-3.80,10.91,-2.54,-1.64,2.62,-4.74,26.47,-11.11,-46.19,46356
-0.39,11.72,-2.81,-1.75,2.72,-4.42,28.88,-5.32,-42.58,46390
-4.28,13.54,-4.11,-1.33,1.99,-3.57,30.74,0.96,-38.80,46424
-0.11,11.21,-6.03,-1.06,1.45,-2.88,30.68,4.72,-37.30,46458
-0.46,9.41,-5.31,-1.15,1.75,-2.83,30.80,8.48,-35.36,46493
2.38,6.20,-6.16,-1.76,2.82,-3.25,30.69,12.92,-30.63,46527
-9.24,2.36,-10.53,-1.67,2.86,-2.98,28.85,17.45,-25.01,46561
-2.02,1.94,-17.01,-1.39,1.91,-2.43,28.19,20.55,-20.55,46595
-10.93,1.79,-6.38,-0.43,0.15,-1.28,26.53,22.26,-19.83,46629
-6.61,3.93,-4.63,0.03,-1.05,-0.21,25.94,22.45,-20.07,46664
-4.58,6.43,-1.87,-0.18,-0.27,-0.59,25.64,22.33,-21.25,46698
-1.51,6.58,-4.78,-0.60,0.71,-1.11,24.73,23.49,-19.50,46732
-3.44,7.00,-6.10,-0.83,1.36,-1.57,23.50,24.67,-18.20,46766
-1.41,5.73,-8.34,-1.13,1.85,-1.65,21.34,25.96,-14.02,46800
-3.01,4.01,-10.09,-1.19,2.09,-1.90,19.50,27.71,-12.13,46834
-2.26,3.44,-10.72,-1.38,2.46,-2.18,16.33,28.91,-7.83,46869
-7.55,1.75,-4.05,-2.05,4.48,-3.25,12.12,28.98,-3.83,46903
2.71,10.13,-4.55,-3.78,6.10,-4.09,5.25,28.65,1.94,46937
-2.68,7.81,-8.21,-4.41,7.40,-5.18,-6.50,25.17,7.32,46971
-4.32,3.59,-9.30,-4.11,6.49,-5.29,-16.56,20.17,8.70,47005
-7.86,11.01,-11.02,-3.40,5.82,-5.23,-27.26,12.17,6.36,47040
-14.18,7.06,-15.05,0.15,2.02,-2.72,-31.44,8.83,4.33,47074
-1.12,8.81,-0.08,0.98,-0.28,-1.30,-31.82,9.06,3.84,47108
-4.97,14.60,-1.83,-0.04,0.53,-1.14,-32.21,6.80,3.80,47142
-0.01,11.57,-0.44,-0.30,0.29,-0.96,-33.06,5.69,3.01,47176
1.35,8.88,-6.92,0.01,-0.31,-0.50,-33.53,4.41,3.74,47210
