ax,ay,az,gx,gy,gz,mx,my,mz,timestamp
9.65,-0.73,1.51,0.27,-0.16,-0.10,8.65,-45.16,-35.19,83289039
9.62,-0.73,1.52,0.28,-0.14,-0.15,8.17,-45.02,-34.92,83289073
9.73,-0.33,1.75,0.13,-0.15,-0.07,8.42,-45.43,-34.83,83289107
9.74,0.01,1.89,-0.24,-0.17,0.02,8.68,-45.59,-35.24,83289141
9.78,-0.82,1.70,-0.61,-0.17,0.09,8.67,-45.79,-36.42,83289175
10.08,-0.00,1.46,-0.20,-0.43,-0.07,8.73,-45.50,-37.50,83289209
9.74,-0.09,1.62,-0.26,-0.36,-0.10,8.62,-45.06,-37.18,83289244
9.35,0.13,0.60,-0.53,-0.46,-0.24,8.52,-44.97,-38.45,83289278
9.74,1.28,0.13,-1.18,-0.65,-0.46,8.71,-44.08,-39.04,83289312
10.32,0.04,1.26,-1.88,-0.68,-0.58,9.02,-42.96,-42.08,83289346
9.13,-3.18,0.56,-0.24,-0.82,-0.94,9.41,-42.34,-43.34,83289380
8.81,2.43,-0.06,0.55,-0.91,-1.52,10.67,-42.09,-42.27,83289415
9.81,1.20,-1.37,-0.31,-0.76,-1.33,11.28,-41.17,-43.92,83289449
8.88,1.70,-2.36,-0.46,-0.92,-1.69,12.04,-40.32,-44.55,83289483
7.72,3.48,-2.89,-0.26,-0.95,-1.85,13.40,-39.36,-45.60,83289517
9.73,2.40,-0.72,-0.59,-0.99,-1.36,13.68,-38.21,-46.07,83289551
9.52,-0.43,-0.45,0.14,-0.77,-1.11,14.32,-37.47,-47.18,83289585
12.69,-2.59,1.03,0.42,-0.80,-0.31,14.44,-37.61,-46.55,83289620
11.10,-1.84,-0.74,0.16,-0.54,0.13,13.61,-37.69,-46.40,83289654
10.46,-1.08,-2.66,0.24,-0.36,0.18,13.78,-38.09,-46.58,83289688
10.60,-0.78,-2.80,0.39,-0.05,0.33,12.93,-38.72,-46.33,83289722
10.49,-1.03,0.26,0.59,0.10,0.73,12.31,-39.30,-45.92,83289756
10.64,-0.68,1.81,0.62,0.12,0.96,11.33,-40.34,-44.96,83289791
9.92,0.75,2.19,0.21,0.06,1.22,10.25,-40.63,-45.03,83289825
9.01,-1.15,-0.42,-0.41,-0.24,0.66,9.15,-40.85,-45.35,83289859
9.99,-0.28,-1.06,-0.43,-0.56,0.39,8.24,-40.62,-46.02,83289893
10.08,1.20,-1.37,-0.94,-0.94,0.99,6.33,-40.35,-47.24,83289927
6.09,8.41,-4.17,-0.93,-0.80,0.02,4.65,-39.89,-47.94,83289961
13.75,2.26,-1.28,-1.38,-0.00,0.87,4.14,-39.08,-49.74,83289996
14.87,3.19,5.77,-0.09,0.91,-0.10,5.09,-38.56,-50.53,83290030
10.70,6.58,-0.41,2.39,1.26,-1.04,6.68,-39.77,-47.69,83290064
9.14,4.73,-1.73,2.20,1.58,-1.35,9.79,-41.80,-45.13,83290098
7.40,3.06,-0.40,1.27,1.41,-1.36,12.38,-42.62,-42.87,83290132
7.29,2.00,1.07,1.20,1.12,-1.44,14.72,-41.86,-42.01,83290166
7.81,2.34,0.58,1.57,0.91,-1.42,17.51,-42.39,-39.94,83290201
8.50,2.20,-0.28,1.08,0.79,-1.45,19.04,-42.36,-38.09,83290235
8.49,2.83,-0.27,0.56,0.70,-1.34,21.06,-41.70,-36.92,83290269
7.72,0.86,1.31,0.55,0.66,-0.95,22.27,-41.22,-36.95,83290303
6.37,0.45,0.90,2.42,0.66,-0.94,23.57,-40.89,-34.07,83290337
4.04,22.47,-1.60,4.62,0.65,-1.49,26.29,-40.70,-29.29,83290372
2.78,13.44,-5.14,2.06,0.87,-0.79,27.42,-40.62,-28.05,83290406
7.00,2.06,-1.64,1.92,0.56,-0.53,27.80,-40.76,-25.40,83290440
17.78,2.53,-3.30,1.30,-0.00,0.74,27.49,-41.32,-24.33,83290474
3.85,5.30,-1.69,0.27,-0.55,-0.23,27.17,-41.32,-24.38,83290508
12.10,0.11,1.75,0.14,-0.57,0.61,26.83,-41.98,-24.58,83290542
9.65,2.04,-3.02,0.52,-0.39,0.15,26.57,-42.03,-23.49,83290577
9.96,1.31,-0.99,0.52,-0.19,0.29,25.59,-42.25,-23.71,83290611
10.09,2.05,-1.93,0.64,-0.05,0.25,26.13,-42.31,-23.47,83290645
10.18,-1.13,-1.24,0.64,0.07,0.35,25.23,-42.77,-23.03,83290679
10.15,1.60,-0.45,0.76,0.07,0.53,24.70,-43.47,-21.79,83290713
10.15,2.62,0.68,0.53,0.09,0.38,24.33,-43.86,-20.97,83290748
8.44,2.90,-1.74,0.18,0.20,-0.21,24.71,-44.33,-20.02,83290782
9.97,1.48,-2.99,0.16,-0.19,-0.22,24.83,-44.55,-19.25,83290816
9.78,4.58,-1.07,0.16,-0.17,-0.49,24.99,-44.26,-18.78,83290850
11.57,7.83,-0.60,0.40,0.54,-0.60,25.49,-44.01,-16.73,83290884
20.10,10.92,3.05,1.11,0.84,-0.31,25.68,-42.78,-15.24,83290918
8.95,9.33,-5.45,2.24,1.84,-0.76,25.67,-38.06,-9.89,83290953
-1.81,8.14,-5.05,2.07,2.06,-2.76,27.07,-37.65,-5.32,83290987
1.31,15.08,-6.92,2.65,1.12,-3.70,28.12,-33.25,-1.21,83291021
6.56,0.35,0.62,0.78,0.81,-3.36,30.59,-28.05,-0.58,83291055
5.63,-0.21,0.27,1.79,0.81,-2.61,31.35,-24.54,0.92,83291089
6.24,1.04,0.08,2.70,0.56,-2.19,31.54,-20.53,3.00,83291124
8.30,1.37,-0.58,2.97,0.53,-1.31,31.28,-16.11,3.52,83291158
9.35,3.74,-1.26,2.91,0.55,-0.60,30.68,-12.50,3.90,83291192
9.91,6.77,-2.03,2.35,0.46,0.04,29.57,-9.97,4.49,83291226
9.16,4.79,-2.09,1.92,0.49,0.55,28.63,-9.13,4.75,83291260
8.65,4.95,-2.38,2.00,0.55,0.66,28.47,-7.60,5.31,83291294
7.77,5.78,-3.21,2.03,0.51,0.95,27.07,-6.88,4.57,83291329
7.75,6.47,-3.73,1.34,0.60,1.41,26.83,-6.07,5.55,83291363
16.80,22.67,-10.91,1.56,-0.71,-0.87,26.18,-7.03,5.86,83291397
6.59,2.78,-0.77,0.54,0.35,1.03,25.78,-8.33,6.01,83291431
3.35,6.15,-1.82,-0.13,-0.07,1.45,25.61,-8.67,5.50,83291465
4.49,10.27,-4.49,-0.84,-0.41,1.89,26.26,-11.37,4.53,83291500
7.47,8.81,-3.81,-1.65,-1.14,1.96,26.45,-13.97,2.59,83291534
6.35,5.72,-1.52,-2.23,-1.39,2.44,26.63,-18.50,1.26,83291568
10.96,5.74,-3.27,-1.97,-1.16,2.59,27.07,-22.10,-0.12,83291602
5.48,5.05,-4.86,-2.17,-1.14,2.40,26.44,-26.19,-1.99,83291636
7.57,1.97,-3.85,-3.18,-1.58,2.53,25.58,-30.81,-5.35,83291670
13.07,-0.87,0.71,-2.92,-1.27,2.96,24.50,-35.05,-8.81,83291705
11.02,-0.39,-2.35,-1.88,-0.68,2.62,22.01,-38.04,-11.58,83291739
7.57,-0.02,-6.32,-1.92,-0.42,2.39,20.29,-40.37,-12.83,83291773
7.74,-0.27,-4.06,-2.69,-0.58,2.32,18.40,-42.02,-15.67,83291807
9.11,-0.08,-3.10,-2.93,-0.59,2.04,15.68,-43.72,-18.71,83291841
10.70,-0.46,-1.75,-3.23,-0.67,1.84,13.59,-44.59,-22.73,83291875
9.65,-1.80,-2.96,-3.63,-0.66,1.98,11.20,-45.37,-27.13,83291910
9.08,4.21,-4.40,-4.06,-0.80,1.86,8.86,-45.18,-31.79,83291944
10.77,1.99,-2.72,-5.11,-1.11,1.77,6.69,-43.83,-38.28,83291978
12.87,-1.30,-1.88,-4.98,-1.13,1.88,4.11,-40.76,-43.86,83292012
11.20,-1.51,0.38,-3.83,-0.74,2.02,1.94,-38.09,-47.94,83292046
7.65,-3.74,0.57,-4.04,-0.53,3.12,-1.86,-34.68,-51.48,83292081
12.05,0.63,-5.40,-4.11,-0.45,2.90,-4.60,-31.42,-54.36,83292115
6.53,-2.16,-1.66,-4.09,-0.48,2.67,-6.45,-26.62,-57.15,83292149
10.18,-0.07,-3.29,-3.93,-0.43,2.99,-8.87,-20.80,-58.75,83292183
8.64,4.37,-5.37,-4.15,-0.53,1.92,-10.38,-15.90,-59.32,83292217
9.16,0.49,0.17,-4.38,-0.85,1.63,-11.31,-8.87,-59.08,83292251
13.16,0.20,-3.78,-4.33,-1.08,2.04,-12.47,-3.68,-58.45,83292286
12.80,-0.69,-2.73,-5.09,-1.28,2.42,-12.93,2.50,-55.96,83292320
12.38,1.84,-3.54,-5.62,-1.46,2.32,-13.52,10.57,-51.75,83292354
10.11,2.11,1.71,-5.94,-1.43,2.02,-12.82,16.24,-46.26,83292388
11.72,-2.27,0.88,-6.36,-1.47,2.51,-11.50,20.99,-37.72,83292422
12.55,-2.38,1.51,-5.42,-1.25,2.32,-9.28,24.07,-31.25,83292457
11.25,3.47,2.34,-4.38,-1.13,2.18,-6.46,25.75,-25.88,83292491
-0.04,-6.09,0.18,-4.39,-1.07,3.11,-1.90,25.86,-19.19,83292525
17.63,-10.08,-2.86,-2.93,-1.45,3.88,2.95,24.83,-15.24,83292559
10.02,3.65,3.07,-3.94,-1.07,4.06,8.92,22.77,-10.73,83292593
9.34,4.92,6.17,-3.53,-0.71,3.64,14.64,18.72,-6.49,83292627
7.92,11.15,-2.47,-2.21,-0.40,2.46,17.98,15.32,-4.52,83292662
7.37,9.35,-9.67,-3.10,-0.64,1.51,20.96,11.66,-2.27,83292696
6.25,7.22,-8.70,-4.41,-1.27,0.87,22.23,8.10,0.04,83292730
8.43,5.53,-3.84,-6.33,-2.23,1.40,24.29,2.31,1.46,83292764
16.60,-0.80,-1.42,-6.28,-2.36,1.67,27.00,-5.57,2.09,83292798
16.26,0.43,-2.19,-4.55,-1.83,2.20,29.14,-11.18,0.57,83292833
14.75,4.33,2.10,-3.98,-1.37,2.60,29.66,-17.76,-1.74,83292867
7.49,-9.97,1.70,-3.94,-0.57,2.67,29.13,-23.11,-4.82,83292901
6.77,-16.75,-0.67,-3.54,-0.19,3.62,28.24,-26.67,-6.37,83292935
12.90,-4.60,-4.97,-3.09,-0.48,3.83,25.96,-31.58,-8.58,83292969
5.81,8.00,-0.00,-3.00,-0.30,2.69,23.84,-35.00,-11.02,83293003
8.42,8.93,-4.82,-2.50,-0.25,1.97,22.32,-37.66,-14.86,83293038
7.23,7.19,-5.92,-3.20,-0.63,1.35,21.57,-38.92,-18.68,83293072
10.77,2.67,-5.47,-4.46,-1.19,1.22,20.26,-40.37,-22.42,83293106
13.25,-3.38,-0.91,-4.55,-1.33,1.68,18.24,-41.06,-29.25,83293140
13.22,-1.22,-0.91,-3.75,-1.06,2.55,16.02,-41.61,-33.62,83293174
8.83,4.33,-2.99,-4.58,-1.11,2.36,12.80,-40.78,-39.23,83293208
8.75,3.32,-2.46,-4.72,-1.22,2.12,9.92,-38.86,-44.83,83293243
8.40,4.28,-3.16,-3.84,-1.14,1.38,7.51,-36.45,-48.86,83293277
10.63,1.48,-3.65,-3.87,-1.22,1.31,5.35,-32.81,-51.68,83293311
10.50,-2.07,-1.28,-3.76,-1.19,1.26,2.98,-29.52,-55.12,83293345
10.05,0.42,-1.04,-3.64,-1.20,1.81,1.05,-25.48,-56.43,83293379
10.82,-0.44,-0.80,-3.49,-1.14,2.21,-1.70,-21.70,-58.26,83293414
8.88,1.90,-3.94,-3.53,-1.08,2.45,-3.95,-18.23,-59.37,83293448
9.16,0.33,-1.19,-3.47,-1.08,2.48,-6.15,-13.17,-58.93,83293482
9.80,2.45,-1.19,-2.99,-1.00,2.22,-7.35,-8.83,-59.18,83293516
7.18,3.71,1.39,-2.69,-0.97,1.95,-8.78,-4.74,-58.48,83293550
8.96,-0.60,-4.10,-2.84,-1.10,2.54,-9.34,-1.11,-57.60,83293584
10.19,5.09,-3.82,-3.28,-1.19,2.45,-9.89,3.58,-56.46,83293619
9.30,-0.65,-2.21,-4.09,-1.24,2.23,-10.06,9.05,-53.60,83293653
9.75,2.92,-0.49,-3.58,-1.20,2.28,-9.68,13.21,-50.32,83293687
11.23,1.22,-2.00,-4.06,-1.31,2.96,-8.23,16.71,-45.43,83293721
8.68,3.90,-3.79,-4.37,-1.16,2.27,-5.98,20.93,-40.82,83293755
9.20,4.22,-2.25,-4.08,-1.18,2.21,-4.62,23.37,-35.87,83293790
11.41,0.71,-5.88,-4.98,-1.27,2.82,-1.48,25.34,-29.11,83293824
10.74,0.14,-4.25,-4.02,-1.07,1.99,1.93,25.68,-23.66,83293858
10.60,4.08,-0.91,-3.80,-1.14,2.09,4.40,25.59,-18.39,83293892
11.86,0.69,-2.29,-4.61,-1.22,3.04,8.71,23.71,-13.26,83293926
11.09,10.09,-2.77,-4.43,-1.20,1.69,12.19,20.77,-9.73,83293960
5.70,13.59,-6.11,-4.69,-1.28,0.15,13.93,17.63,-3.83,83293995
-5.54,17.97,-1.56,-6.77,-2.07,-1.16,14.92,13.43,1.05,83294029
-1.55,2.93,0.07,-7.54,-2.66,-0.81,16.38,8.04,5.55,83294063
2.15,-3.02,0.98,-4.64,-2.50,-1.37,18.25,3.17,6.74,83294097
2.79,2.61,-8.01,-3.96,-2.16,-2.14,19.18,0.89,6.31,83294131
8.49,3.07,-15.90,-1.92,-1.94,-2.54,20.39,-0.18,6.62,83294166
3.28,9.67,-17.99,-0.28,-0.00,-2.32,19.38,0.92,6.46,83294200
4.11,15.75,-4.94,-1.16,0.22,-1.80,18.74,2.13,7.79,83294234
7.00,10.66,-1.32,-1.49,-0.27,-1.03,17.58,0.51,8.30,83294268
8.94,13.45,0.69,-1.87,-0.39,-0.16,18.18,-1.13,9.46,83294302
4.44,13.15,2.94,-2.22,-0.65,0.62,18.88,-4.30,9.00,83294336
3.47,6.79,0.96,-2.68,-1.40,1.24,20.37,-8.11,8.64,83294371
4.40,12.85,1.96,-1.79,-1.38,1.35,21.89,-10.26,7.47,83294405
4.20,5.34,1.69,-2.48,-1.52,2.77,23.82,-15.38,7.09,83294439
2.82,5.07,1.11,-2.54,-1.79,2.64,24.70,-19.95,4.57,83294473
3.69,5.38,1.34,-2.12,-2.19,2.31,25.69,-24.89,1.62,83294507
6.07,2.91,0.58,-2.75,-2.33,2.63,25.78,-28.97,-3.03,83294541
5.74,3.71,1.28,-1.99,-1.77,2.22,25.50,-32.21,-5.73,83294576
5.75,3.84,1.45,-1.20,-1.32,1.97,24.44,-35.85,-7.63,83294610
8.94,3.84,0.45,-0.67,-0.72,1.59,23.24,-37.28,-9.81,83294644
9.77,4.16,0.19,-0.32,-0.39,1.11,22.20,-38.61,-10.20,83294678
10.67,4.83,0.75,-0.72,-0.63,0.97,21.54,-39.74,-11.60,83294712
12.32,2.37,1.55,-1.18,-0.74,1.14,20.42,-41.01,-12.64,83294747
10.87,3.93,2.51,-0.70,-0.60,1.28,19.35,-42.01,-14.69,83294781
9.87,6.24,3.21,-0.29,-0.47,1.36,17.85,-43.53,-15.64,83294815
7.45,11.07,1.99,0.06,-0.64,0.19,16.91,-43.79,-16.16,83294849
5.63,8.97,-6.58,1.19,-0.82,-1.24,17.86,-43.36,-15.51,83294883
3.48,11.75,-10.07,-1.66,-1.50,-0.95,19.35,-42.68,-17.33,83294917
4.59,4.90,-7.94,-4.15,-2.55,-0.92,21.34,-42.63,-23.41,83294952
10.93,-3.55,-9.91,-3.42,-2.76,-0.95,21.79,-41.96,-29.58,83294986
21.77,-8.71,28.82,-5.59,-0.94,1.45,21.15,-40.46,-35.69,83295020
17.41,-12.55,5.48,-0.26,-0.32,-0.35,21.46,-39.67,-37.24,83295054
13.76,-6.14,-2.40,0.28,-0.13,0.34,21.27,-40.32,-36.03,83295088
10.94,-2.12,0.43,0.04,-0.11,1.45,19.66,-41.29,-36.44,83295123
10.50,-3.15,1.87,-0.93,-0.27,1.62,17.85,-41.73,-38.38,83295157
9.62,2.51,-1.12,-0.25,-0.13,1.20,16.18,-42.68,-38.64,83295191
8.54,2.98,-6.32,-0.10,-0.45,1.06,14.92,-42.98,-38.63,83295225
9.63,3.11,1.03,-0.29,0.13,1.08,13.78,-43.31,-39.86,83295259
8.87,0.48,-8.29,-0.44,-1.09,0.98,11.94,-43.91,-39.67,83295293
8.58,4.43,-3.95,-1.63,-1.47,1.75,9.92,-43.07,-41.96,83295328
7.71,0.67,0.26,-1.29,-1.36,1.32,7.32,-43.19,-44.07,83295362
3.41,4.25,0.09,0.09,-0.77,0.38,5.93,-42.82,-44.18,83295396
15.33,6.08,-18.51,-3.87,-1.02,-0.24,6.81,-41.61,-45.94,83295430
14.59,-17.66,-2.99,-0.53,0.13,-1.80,8.89,-40.18,-46.58,83295464
8.44,-6.84,-3.01,-0.63,-0.57,-0.17,9.44,-40.08,-46.86,83295499
13.59,-2.73,1.27,-0.32,-0.69,0.40,8.94,-40.43,-47.56,83295533
11.18,-1.57,0.89,-0.37,-0.23,0.62,8.30,-40.03,-48.07,83295567
8.62,1.99,-3.28,-0.13,-0.46,0.40,7.53,-39.84,-48.48,83295601
9.49,3.29,-0.99,-0.46,-0.63,0.52,5.80,-39.33,-49.28,83295635
9.80,2.45,-2.12,-0.06,-0.47,0.02,5.64,-39.52,-49.15,83295669
8.30,2.28,-3.19,-0.83,-0.29,-0.13,5.50,-38.88,-49.53,83295704
8.86,1.47,-1.80,-0.94,-0.40,-0.13,5.13,-38.41,-50.69,83295738
9.91,-0.03,-4.65,-0.58,-0.28,-0.15,5.42,-37.61,-51.49,83295772
8.51,0.15,-2.99,-0.24,-0.33,-0.09,4.85,-37.43,-51.46,83295806
9.77,-0.24,-2.09,-0.04,-0.19,-0.03,4.97,-36.86,-51.96,83295840
9.05,1.49,-3.60,0.19,-0.11,-0.11,4.66,-36.79,-51.77,83295875
8.77,2.52,-3.63,0.12,-0.08,-0.24,4.76,-36.61,-52.15,83295909
9.30,3.17,-3.28,-0.16,0.02,-0.49,5.00,-36.17,-51.91,83295943
8.89,2.15,-2.83,-0.40,0.13,-0.87,5.93,-36.00,-52.06,83295977
9.11,0.60,-1.70,-0.25,0.21,-0.99,6.72,-35.37,-52.47,83296011
9.43,0.01,-1.41,-0.13,0.05,-0.95,7.89,-34.80,-52.37,83296045
10.26,-2.55,1.06,-0.39,-0.24,-0.69,8.74,-34.13,-52.84,83296080
10.61,-2.32,-0.49,-0.37,-0.34,-0.30,8.52,-34.05,-53.35,83296114
9.60,-0.22,-2.35,-0.54,-0.58,0.16,7.69,-33.63,-53.73,83296148
10.70,-2.75,-4.26,-1.00,-0.79,0.31,6.55,-32.68,-54.68,83296182
7.77,1.25,-2.07,-0.56,-0.63,0.43,5.85,-31.98,-55.66,83296216
7.20,4.84,-2.64,-0.23,-0.36,0.46,4.79,-32.04,-55.89,83296250
10.86,7.06,-1.73,-0.13,-0.26,0.51,4.15,-31.91,-56.12,83296285
8.12,5.41,-3.58,-0.01,0.15,0.17,4.22,-31.57,-56.02,83296319
8.66,4.48,-3.41,0.07,0.10,-0.04,4.56,-31.61,-55.96,83296353
9.16,3.37,-1.76,0.04,0.07,0.05,4.49,-32.14,-56.37,83296387
8.94,2.76,-2.59,0.27,0.09,-0.02,4.38,-32.17,-55.45,83296421
8.92,2.00,-3.51,0.28,0.06,0.20,4.76,-32.59,-55.32,83296456
9.89,1.68,-3.61,0.44,0.11,0.23,4.84,-32.97,-54.90,83296490
9.40,1.24,-3.51,0.54,0.16,0.30,4.63,-33.21,-55.16,83296524
9.11,1.07,-2.24,0.57,0.17,0.38,5.09,-34.04,-54.76,83296558
10.23,1.25,-1.22,0.67,0.17,0.42,4.63,-34.23,-53.26,83296592
8.87,1.95,-2.74,0.22,0.04,0.41,4.27,-34.64,-54.05,83296626
8.83,2.37,-1.99,-0.11,-0.07,0.35,4.72,-34.57,-53.93,83296661
8.16,4.45,-2.36,-0.06,0.09,0.09,4.57,-34.61,-54.02,83296695
7.05,7.62,-3.89,-0.05,0.13,-0.29,4.93,-34.39,-53.20,83296729
7.77,9.30,-4.07,0.21,0.11,-0.77,5.71,-33.76,-53.35,83296763
6.06,12.37,-3.47,0.77,0.27,-1.61,6.96,-33.86,-52.69,83296797
13.26,4.64,0.22,0.05,0.08,-1.72,8.93,-33.63,-51.62,83296832
10.13,2.82,1.80,1.63,0.03,-2.19,11.21,-33.53,-51.21,83296866
11.22,-2.26,4.17,1.84,0.44,-1.52,12.58,-33.76,-49.88,83296900
13.63,-4.78,2.29,1.88,0.39,-0.96,14.64,-34.77,-48.39,83296934
11.58,-3.37,0.95,1.26,0.33,-0.35,15.19,-35.84,-47.63,83296968
10.51,-0.10,-0.41,0.77,0.21,0.14,15.46,-36.52,-45.72,83297002
10.09,0.18,-1.21,0.44,0.09,0.20,15.48,-36.77,-45.69,83297037
10.97,-1.13,-1.56,-0.09,-0.06,0.36,14.70,-36.83,-45.88,83297071
9.61,-1.96,-3.07,-0.02,-0.13,0.55,14.97,-37.01,-46.24,83297105
10.94,-1.04,-0.77,-0.04,-0.13,0.88,13.90,-37.43,-46.23,83297139
10.17,1.30,-0.14,0.21,-0.02,0.52,13.75,-38.07,-46.07,83297173
10.19,-0.79,-0.46,-0.24,-0.22,0.79,12.67,-38.42,-46.14,83297208
10.16,1.26,-1.21,-0.30,-0.18,1.76,11.53,-39.01,-46.77,83297242
11.25,9.80,-5.02,-1.47,0.01,1.93,9.24,-39.11,-47.50,83297276
8.66,9.53,-3.03,-3.00,0.16,0.05,8.18,-36.42,-50.64,83297310
7.17,3.38,-10.24,-4.76,-0.63,-0.36,8.80,-31.53,-54.71,83297344
10.95,3.88,1.50,-3.68,-0.53,-0.09,8.02,-27.14,-57.31,83297378
9.89,7.35,0.31,-1.37,-0.22,-1.48,8.10,-24.12,-58.29,83297413
8.05,8.23,-2.76,-2.15,0.15,-1.85,9.44,-21.41,-58.73,83297447
6.95,4.93,-0.37,-3.42,0.04,-1.82,10.27,-16.66,-59.43,83297481
6.03,3.62,1.14,-2.71,0.16,-1.65,10.83,-11.91,-59.02,83297515
3.11,4.25,-0.12,-0.74,0.26,-1.40,11.62,-9.59,-59.38,83297549
1.11,2.43,-1.53,-0.16,-0.33,-0.68,11.96,-8.58,-59.15,83297583
14.74,-5.93,10.86,-0.01,-1.15,2.77,11.41,-9.73,-58.36,83297618
37.58,-2.37,-6.80,0.31,-1.56,2.16,10.74,-11.03,-59.27,83297652
5.71,17.64,-11.48,0.58,-0.49,-0.88,9.63,-10.42,-56.28,83297686
14.03,-4.82,-4.30,-1.62,-0.77,0.48,9.65,-8.24,-59.66,83297720
9.06,-0.30,-7.41,-1.04,-0.46,0.04,9.12,-7.66,-60.25,83297754
8.46,6.09,-6.97,-0.90,-0.47,-0.49,8.17,-6.37,-60.03,83297789
8.64,3.29,2.12,-0.60,-0.39,-1.03,7.79,-4.57,-60.01,83297823
10.58,1.84,-3.11,-0.71,-0.11,-1.82,7.37,-3.24,-59.72,83297857
10.14,1.79,-3.13,-1.08,-0.18,-1.85,7.09,-1.67,-59.70,83297891
14.68,2.70,-3.91,-1.39,-0.36,-1.39,6.33,0.98,-59.32,83297925
17.35,4.20,-2.16,-1.12,-0.11,-1.54,5.83,2.82,-58.49,83297959
17.34,5.52,-9.06,-0.93,0.40,-0.77,5.55,4.11,-57.45,83297994
1.28,12.87,6.63,0.55,1.22,1.44,7.45,3.14,-57.31,83298028
3.91,15.92,-6.34,1.67,0.70,-2.53,7.99,1.72,-57.15,83298062
5.38,-8.75,2.50,4.27,1.12,-1.24,8.65,-0.91,-58.07,83298096
4.75,3.11,-0.23,5.50,0.79,-0.89,10.11,-8.86,-59.16,83298130
5.51,2.39,-1.72,4.94,0.48,-0.58,10.64,-13.86,-58.73,83298165
4.43,6.52,-3.36,3.08,0.22,0.11,11.36,-18.23,-57.64,83298199
6.00,8.12,-3.64,1.73,-0.16,0.23,11.34,-21.62,-57.72,83298233
6.87,4.15,-2.45,0.81,-0.20,0.44,10.95,-22.42,-57.37,83298267
6.96,4.71,-3.29,0.94,-0.21,0.33,10.80,-24.20,-56.28,83298301
9.12,2.17,-2.08,0.57,-0.16,0.50,9.95,-25.14,-55.63,83298335
13.89,3.32,-2.14,-0.52,-0.09,0.49,10.20,-26.12,-55.52,83298370
4.98,-3.14,-6.04,-3.09,-0.25,1.03,10.48,-23.46,-57.06,83298404
5.71,8.27,-2.24,-1.74,-0.57,-0.10,10.17,-22.52,-57.47,83298438
8.28,8.27,-0.45,-1.78,-0.59,-0.08,9.53,-18.99,-57.80,83298472
10.77,2.49,2.35,-1.43,-0.16,0.12,9.22,-17.28,-58.58,83298506
8.23,7.09,2.57,-0.37,0.34,0.45,9.44,-17.09,-58.89,83298541
7.64,6.69,0.09,0.77,1.05,0.70,10.39,-18.08,-57.63,83298575
5.75,6.62,-3.07,1.37,1.46,0.56,11.79,-19.67,-56.84,83298609
7.50,4.66,-3.60,1.74,1.58,0.16,13.65,-22.01,-55.16,83298643
7.88,5.51,-3.51,1.89,1.50,-0.11,15.55,-24.41,-54.00,83298677
9.01,3.12,-2.42,1.95,1.51,-0.18,17.64,-26.34,-52.84,83298711
9.04,4.65,-3.82,2.28,1.59,-0.37,19.31,-28.94,-49.96,83298746
6.35,1.50,-2.22,1.61,1.43,0.11,20.71,-30.14,-48.06,83298780
10.37,-3.49,0.95,1.43,1.16,0.74,20.58,-32.43,-45.06,83298814
13.58,-5.55,2.11,1.95,1.29,1.73,20.56,-34.86,-42.66,83298848
14.06,-0.14,0.79,3.55,1.89,1.51,20.67,-37.75,-39.18,83298882
10.40,-0.50,-9.45,4.38,2.19,0.83,19.94,-41.82,-31.73,83298916
7.91,1.78,-13.76,4.19,1.97,-0.20,20.65,-42.79,-25.08,83298951
7.64,2.77,-10.78,3.35,1.36,0.12,20.27,-43.15,-19.77,83298985
11.92,2.72,0.80,2.53,1.03,-0.20,19.66,-42.43,-15.80,83299019
7.90,-0.70,-3.60,3.85,1.65,-0.37,19.12,-42.01,-11.20,83299053
7.94,4.42,-7.81,4.47,1.85,-0.65,18.01,-39.10,-4.97,83299087
11.69,3.21,-6.95,4.10,1.73,-0.95,18.06,-35.43,-0.07,83299122
5.67,4.93,-6.30,3.11,1.18,-1.03,17.29,-31.63,4.12,83299156
7.85,2.98,-2.94,3.07,1.11,-0.83,16.62,-28.27,5.86,83299190
9.25,7.57,-2.10,3.29,1.24,-0.57,15.48,-24.60,9.08,83299224
6.91,7.03,-6.57,2.90,0.94,-0.56,14.54,-20.58,10.29,83299258
6.41,6.17,-6.81,1.60,0.21,-0.10,14.19,-18.52,11.53,83299292
8.02,7.26,-2.68,1.78,0.31,-0.69,13.24,-16.27,11.62,83299327
5.86,7.45,-1.48,2.23,0.61,-1.14,13.17,-13.50,12.64,83299361
7.16,5.40,-2.99,1.73,0.40,-1.18,12.29,-10.96,12.58,83299395
18.27,-4.02,-3.88,2.89,1.11,-0.49,11.56,-8.16,12.79,83299429
16.28,-4.75,-2.88,4.82,2.17,-0.32,9.60,-3.04,12.10,83299463
7.23,-8.30,-0.58,6.94,2.65,-0.47,5.69,5.47,9.15,83299498
4.58,-8.74,-1.84,5.67,2.88,0.61,3.43,12.15,5.41,83299532
6.44,6.02,-11.52,5.19,1.91,2.18,3.00,16.82,1.49,83299566
8.05,6.17,-17.69,1.08,0.18,2.06,5.64,17.41,-1.13,83299600
8.74,7.18,-9.44,0.61,-0.07,0.54,7.25,18.01,-1.87,83299634
15.16,5.50,-3.16,1.82,0.42,-0.97,6.50,18.75,-3.70,83299668
13.35,9.33,-2.17,4.68,2.10,-3.21,4.08,22.08,-7.45,83299703
3.65,5.67,-7.12,4.22,1.94,-2.97,-0.12,24.42,-12.09,83299737
4.07,3.66,-5.89,1.83,0.56,-0.73,-2.08,24.95,-14.47,83299771
9.51,-0.26,1.56,0.67,0.15,0.79,-1.05,25.08,-15.76,83299805
13.78,1.14,1.00,1.76,0.65,0.13,-0.26,25.26,-17.04,83299839
8.02,2.79,-4.45,4.37,1.99,-0.94,-0.09,25.56,-21.03,83299874
6.34,5.27,-9.22,4.98,2.15,-2.13,-2.16,25.71,-26.88,83299908
9.07,3.99,-7.18,3.52,1.58,-1.87,-4.06,24.60,-32.11,83299942
8.92,1.73,-2.33,2.81,1.40,-1.19,-4.66,23.97,-35.37,83299976
10.19,0.55,-1.80,3.13,1.67,-0.95,-5.63,21.72,-39.35,83300010
10.85,-0.81,-3.81,4.15,2.28,-0.84,-4.90,19.50,-43.76,83300044
12.20,-0.14,-4.88,5.06,2.72,-0.64,-4.17,15.86,-48.23,83300079
12.67,-1.57,-7.49,5.03,2.63,-0.15,-1.80,11.01,-52.82,83300113
9.26,-3.56,-8.18,4.84,2.53,0.16,0.96,6.07,-55.26,83300147
7.90,-2.02,-11.76,6.17,2.59,-0.32,3.65,-1.36,-58.55,83300181
7.99,1.29,-11.54,6.69,2.49,-0.66,5.55,-8.90,-58.62,83300215
8.51,0.38,-9.44,5.61,2.02,-0.57,8.20,-15.61,-59.19,83300250
9.89,-0.22,-6.66,5.61,1.99,-0.54,10.49,-23.05,-56.21,83300284
9.04,-2.74,-6.62,6.03,2.10,-0.07,12.12,-28.88,-52.92,83300318
9.51,1.78,-9.05,6.70,2.06,0.05,13.90,-35.43,-46.45,83300352
7.94,3.48,-12.78,5.97,1.63,0.27,14.35,-39.78,-41.26,83300386
8.09,4.57,-9.05,5.14,1.30,-0.15,14.69,-43.15,-34.55,83300420
8.40,5.67,-6.33,4.37,1.06,-0.96,15.61,-44.10,-27.93,83300455
8.75,1.62,-6.14,3.94,1.08,-0.56,16.38,-44.30,-23.46,83300489
10.74,1.79,-11.42,4.40,1.06,-0.83,16.88,-43.73,-16.24,83300523
8.54,10.05,-9.29,4.53,1.25,-2.73,18.49,-41.04,-11.09,83300557
3.18,10.09,-4.81,3.23,0.99,-2.45,20.11,-37.64,-6.80,83300591
7.41,4.44,-0.90,2.08,0.82,-1.36,21.00,-35.09,-4.31,83300625
12.89,0.24,-2.58,2.71,0.89,-1.26,21.57,-32.99,-1.78,83300660
12.97,-5.14,-8.61,3.46,1.36,-0.37,20.75,-29.29,1.87,83300694
4.55,-0.55,-0.91,4.65,1.68,-0.49,19.18,-25.24,4.81,83300728
7.75,-2.81,7.80,4.36,2.03,0.30,17.68,-20.83,8.54,83300762
11.99,0.80,-0.12,3.77,1.87,0.93,14.79,-15.81,10.20,83300796
6.27,9.72,-16.90,2.18,0.96,0.44,13.20,-13.33,11.74,83300831
4.12,8.32,-15.02,0.99,0.59,-1.15,11.85,-11.39,11.81,83300865
10.25,5.69,0.64,1.68,0.97,-2.32,11.08,-8.70,11.68,83300899
16.91,-0.94,4.72,3.37,2.04,-2.43,8.71,-4.47,11.91,83300933
17.27,-3.03,-2.09,6.08,3.43,-1.31,4.33,3.19,9.70,83300967
10.05,-6.20,-13.47,6.55,3.68,0.04,0.66,9.31,5.99,83301001
4.69,-1.44,-18.73,8.72,3.34,-0.86,-3.42,17.57,-1.80,83301036
2.54,-18.61,8.71,7.11,2.86,-1.51,-5.70,21.31,-8.32,83301070
11.29,-0.93,-5.06,6.41,2.24,-0.17,-6.80,24.04,-16.11,83301104
7.34,-4.25,-9.12,4.49,2.21,1.08,-5.93,25.40,-23.82,83301138
8.49,3.53,-11.22,5.33,2.15,1.16,-3.62,25.34,-29.71,83301172
9.62,3.44,-12.98,5.72,1.92,-0.24,-2.12,23.34,-37.53,83301207
9.17,0.23,-12.94,4.72,1.92,-0.48,-1.89,21.56,-41.65,83301241
8.06,3.87,-11.52,4.95,1.94,0.16,-0.42,18.27,-46.30,83301275
11.54,4.69,-8.82,4.75,1.78,0.20,1.70,14.22,-50.76,83301309
7.20,4.30,-6.62,4.17,1.53,0.36,3.14,10.44,-53.33,83301343
8.63,4.25,-6.70,3.49,1.19,0.65,4.88,6.85,-55.82,83301377
9.80,2.65,-9.20,3.10,0.98,0.24,6.23,3.55,-57.22,83301412
7.16,6.52,-9.86,2.97,0.95,-1.38,6.71,1.15,-58.73,83301446
10.39,0.87,0.33,2.31,0.98,-1.45,6.83,-1.58,-59.28,83301480
19.39,-1.22,3.44,3.58,1.86,-1.83,7.97,-5.07,-59.31,83301514
3.77,1.02,-9.06,5.46,2.76,-2.59,14.69,-10.80,-58.81,83301548
8.25,-1.36,-6.18,4.26,2.46,-1.65,14.22,-14.89,-57.50,83301583
14.07,0.97,-4.42,5.47,3.27,-1.50,17.48,-20.01,-55.35,83301617
5.38,8.75,-10.00,5.94,3.15,-1.04,22.55,-25.97,-50.10,83301651
1.52,5.27,-8.56,5.14,2.53,-0.04,24.69,-29.89,-45.54,83301685
12.16,2.62,-16.34,5.24,2.42,-0.32,26.67,-34.01,-38.89,83301719
18.30,-7.47,-8.46,8.40,3.66,-1.65,28.63,-35.21,-30.52,83301753
9.18,-2.69,-1.49,8.10,3.43,-2.39,30.66,-32.72,-19.67,83301788
15.33,-7.44,-10.28,5.70,2.29,-0.25,30.47,-30.24,-11.36,83301822
8.69,2.74,-11.05,5.73,3.08,1.48,27.02,-28.82,-4.46,83301856
6.07,3.02,-12.39,4.99,2.52,2.05,24.26,-25.97,1.53,83301890
3.00,8.56,-20.08,3.45,1.20,2.03,21.12,-23.78,4.82,83301924
1.51,16.69,-16.29,1.33,0.21,0.70,19.88,-22.61,5.47,83301958
13.26,10.33,-1.38,-1.15,-0.85,0.50,20.96,-23.81,4.82,83301993
15.39,1.30,4.01,-1.04,-0.82,0.65,21.53,-24.67,2.86,83302027
8.29,-2.25,0.09,0.14,-0.17,0.81,20.97,-25.52,3.13,83302061
7.64,1.61,-2.81,2.78,0.54,0.40,20.49,-23.53,4.60,83302095
8.35,-0.64,-7.57,4.51,1.09,-1.09,19.76,-19.54,6.40,83302129
5.61,-1.07,-6.52,4.44,0.99,-1.25,19.15,-13.67,8.18,83302164
10.36,-5.96,-2.87,5.29,1.24,-1.62,17.99,-8.20,8.40,83302198
14.81,-2.90,-4.38,8.11,2.35,-3.02,14.44,2.79,6.91,83302232
10.58,-4.49,-12.00,9.36,3.51,-4.50,9.11,12.76,2.31,83302266
5.64,-1.46,-10.36,6.97,2.75,-2.19,4.36,19.48,-4.25,83302300
12.48,-3.82,-6.50,6.18,2.46,-1.21,1.55,22.86,-11.72,83302334
13.16,0.10,-9.67,5.99,2.34,-1.12,-0.35,24.74,-18.18,83302369
5.48,1.76,-13.48,5.30,2.09,-1.36,-2.13,25.65,-25.50,83302403
10.82,-2.68,-11.33,4.81,2.12,-1.26,-2.84,24.74,-30.81,83302437
15.33,-4.91,-7.21,6.29,2.81,-1.38,-3.42,23.25,-37.87,83302471
6.38,-8.71,-13.32,7.52,3.62,-0.84,-2.46,18.72,-46.99,83302505
11.38,-14.28,-11.69,9.43,3.64,-0.47,-0.45,10.70,-54.15,83302540
12.71,-11.05,-7.89,10.75,3.65,-0.63,3.62,-3.24,-60.52,83302574
11.47,-9.47,-14.08,9.35,3.05,-0.00,6.26,-13.81,-59.51,83302608
7.14,-7.95,-22.88,6.70,2.18,0.94,8.35,-22.16,-57.66,83302642
6.09,0.58,-20.94,6.92,1.80,-0.12,9.57,-31.53,-52.86,83302676
9.95,0.24,-14.40,6.31,1.93,-1.47,11.34,-36.93,-46.62,83302710
8.40,3.65,-9.51,7.43,2.51,-1.69,14.88,-42.01,-37.24,83302745
15.31,-1.66,-9.68,6.74,2.51,-1.00,16.15,-43.66,-28.33,83302779
11.89,-1.99,-8.92,5.80,2.34,-0.32,16.46,-44.10,-20.10,83302813
6.32,2.43,-13.12,5.01,1.89,0.65,15.49,-42.77,-11.87,83302847
10.67,7.53,-6.04,4.45,1.63,-0.16,14.21,-41.82,-6.39,83302881
13.17,1.74,-6.75,3.52,1.51,-1.43,14.43,-38.15,-1.61,83302916
11.76,4.11,-8.96,3.92,1.75,-2.21,15.35,-34.30,3.32,83302950
19.60,3.75,-8.36,3.90,2.12,-2.53,15.11,-30.25,7.47,83302984
3.06,8.02,-11.53,4.14,1.82,-2.13,14.45,-23.06,11.68,83303018
-13.10,4.47,-7.87,0.17,0.53,-2.11,14.12,-20.37,13.18,83303052
16.84,-4.15,-0.30,0.84,0.15,-3.46,14.44,-17.07,13.99,83303086
7.89,0.55,-0.59,2.25,1.75,-1.94,12.42,-12.25,14.28,83303121
14.10,5.14,-9.40,3.48,2.36,-2.01,9.94,-7.25,14.82,83303155
11.27,8.64,-5.44,4.01,2.78,-1.83,5.06,-1.26,13.72,83303189
8.36,10.02,-4.46,2.63,2.18,-1.25,1.67,2.57,11.97,83303223
7.04,6.64,-4.20,1.77,2.27,-0.22,-1.29,5.36,9.97,83303257
5.41,9.46,-4.02,2.58,2.23,-0.29,-3.51,7.70,8.27,83303291
3.57,6.84,-4.80,1.46,1.77,0.44,-4.95,9.63,6.30,83303326
2.29,11.83,3.13,1.90,1.78,0.31,-5.98,11.40,5.00,83303360
3.06,8.19,-8.45,4.21,2.07,-0.60,-7.35,14.09,1.58,83303394
3.22,10.11,-8.14,2.25,1.79,-0.16,-9.31,16.50,-2.16,83303428
1.19,8.98,-6.77,1.86,1.71,-0.13,-10.35,18.15,-3.99,83303462
6.83,1.93,-1.72,1.36,1.42,-0.13,-11.74,18.94,-5.96,83303497
5.31,7.15,-1.43,2.51,1.53,-0.09,-12.00,20.07,-8.51,83303531
5.71,9.45,-5.37,2.22,1.15,-0.31,-12.55,21.38,-11.60,83303565
14.50,11.15,6.37,-1.24,1.49,-1.51,-14.59,20.59,-12.07,83303599
14.14,0.34,-0.69,1.68,1.79,-1.59,-16.49,20.48,-14.19,83303633
9.74,12.79,-6.18,3.11,1.50,-2.94,-19.19,20.51,-18.58,83303667
7.90,7.50,-2.90,-0.70,1.79,-2.62,-22.64,18.68,-19.60,83303702
4.41,0.79,-1.71,-1.32,1.97,-1.54,-23.95,17.64,-19.42,83303736
-1.03,-0.15,0.50,-2.06,1.77,-0.59,-24.79,17.07,-18.90,83303770
-3.01,-1.69,1.91,-1.67,1.71,1.36,-23.90,17.20,-18.88,83303804
-1.69,-4.67,0.70,-1.84,1.37,3.15,-21.34,18.90,-18.02,83303838
7.26,-2.45,2.44,2.82,1.11,3.75,-16.81,22.35,-20.46,83303873
12.39,12.76,-3.51,6.36,2.00,3.23,-13.01,23.43,-30.24,83303907
29.90,15.41,-18.34,5.00,0.27,3.50,-14.02,23.18,-31.61,83303941
0.42,5.06,-3.36,2.51,0.59,0.31,-12.64,22.89,-34.52,83303975
0.99,-0.17,2.98,1.73,0.22,1.43,-11.34,22.33,-36.95,83304009
-17.09,20.64,-14.79,4.38,1.84,-3.28,-10.11,20.51,-41.64,83304043
17.75,-2.36,0.96,0.44,-0.43,1.53,-8.26,21.53,-41.86,83304078
5.68,6.87,-1.10,0.56,-0.12,0.70,-8.26,20.46,-42.12,83304112
7.41,3.22,-2.42,0.60,0.11,0.57,-7.31,20.58,-43.34,83304146
7.54,4.86,-2.56,0.68,0.33,0.02,-6.74,20.18,-43.95,83304180
8.52,4.52,-1.23,0.65,0.08,0.32,-6.20,19.72,-44.04,83304214
7.62,5.79,-2.09,0.40,-0.10,-0.00,-5.50,19.85,-44.81,83304249
7.28,3.87,-1.84,0.27,-0.11,-0.28,-5.69,19.98,-44.96,83304283
8.45,3.93,-5.65,0.08,-0.44,-0.58,-6.26,19.38,-45.75,83304317
11.45,2.33,-2.13,0.21,-0.43,-0.66,-7.51,19.10,-44.91,83304351
12.98,1.01,0.35,0.44,-0.10,-0.82,-8.43,18.82,-45.82,83304385
13.49,1.00,-1.90,0.50,0.56,-0.46,-8.61,18.21,-46.10,83304419
11.53,1.40,-1.37,0.23,0.75,0.54,-8.29,17.66,-45.26,83304454
9.21,2.79,2.61,0.40,0.82,1.40,-6.72,17.41,-45.70,83304488
6.48,5.34,0.31,0.58,0.71,2.36,-4.74,16.82,-46.39,83304522
4.89,7.15,0.09,0.43,0.47,2.44,-1.91,16.72,-46.49,83304556
4.03,17.34,-1.88,0.69,0.37,0.89,-0.13,16.24,-47.28,83304590
5.73,10.40,0.71,-0.81,0.49,0.45,0.73,17.07,-45.66,83304625
4.71,10.92,-0.42,-0.37,0.58,-0.44,0.85,17.96,-45.63,83304659
-1.03,10.13,-1.73,-0.15,0.26,-0.86,1.27,17.98,-45.10,83304693
18.33,3.90,-4.05,3.27,-1.31,0.40,0.13,17.44,-46.17,83304727
16.87,-4.51,15.96,-3.95,-1.82,2.50,-2.08,18.40,-44.83,83304761
11.39,-0.95,-1.09,0.76,-0.72,-0.91,-3.33,17.73,-44.43,83304795
9.99,2.91,-2.27,0.36,-0.57,-0.07,-4.17,18.06,-45.70,83304830
10.15,2.06,-1.19,-0.06,-0.42,0.60,-3.96,17.93,-44.52,83304864
8.44,3.53,-3.68,0.41,-0.15,0.19,-3.76,17.77,-45.00,83304898
8.83,3.88,-2.43,0.11,-0.16,0.63,-3.62,17.82,-45.15,83304932
9.43,2.81,-1.37,0.40,-0.01,0.43,-2.35,17.92,-44.96,83304966
8.96,2.74,-1.90,0.51,0.05,0.43,-2.37,17.20,-45.82,83305000
9.33,2.22,-1.65,0.37,0.01,0.54,-2.05,16.95,-46.19,83305035
9.11,1.13,-2.01,0.40,0.02,0.23,-1.45,16.73,-46.86,83305069
9.51,1.10,-2.50,0.58,0.05,0.15,-1.49,16.88,-47.38,83305103
9.73,0.68,-2.08,0.56,0.06,0.22,-1.75,16.18,-48.23,83305137
9.75,1.70,-3.08,0.57,0.15,-0.01,-1.21,16.33,-47.71,83305171
10.53,-0.85,-2.97,0.37,0.23,0.09,-0.75,15.87,-48.22,83305206
11.10,-1.27,-2.42,0.25,0.24,0.40,-0.79,15.96,-48.48,83305240
10.87,-2.11,-3.20,0.41,0.40,-0.12,-0.86,15.62,-48.93,83305274
11.95,-7.73,-0.32,0.70,0.70,-0.11,-0.95,14.76,-49.58,83305308
10.26,-1.25,-4.86,1.92,1.06,-0.88,-0.95,13.45,-50.91,83305342
9.50,1.19,-0.97,3.45,2.17,0.03,-0.12,11.49,-53.74,83305376
4.50,11.17,-6.63,5.55,2.43,-0.59,2.41,6.02,-57.66,83305411
5.86,8.84,-9.16,5.27,2.25,-1.33,4.00,0.57,-59.21,83305445
5.05,12.34,-9.13,4.40,2.02,-0.78,6.56,-6.05,-60.00,83305479
4.81,9.53,-6.47,4.15,1.38,-0.87,8.54,-9.98,-60.60,83305513
13.90,26.88,4.84,5.14,-0.15,-3.14,9.40,-14.78,-59.69,83305547
4.41,2.67,7.00,-0.43,0.59,0.05,10.64,-14.92,-60.04,83305582
7.34,2.81,3.78,1.63,0.26,-1.93,11.41,-15.95,-58.67,83305616
9.66,0.05,0.47,1.38,0.02,-1.01,11.91,-17.44,-58.37,83305650
9.86,-0.17,-0.84,1.18,-0.16,-0.51,11.94,-18.09,-58.62,83305684
14.98,3.94,-5.20,0.34,-0.57,-0.07,11.60,-18.59,-58.83,83305718
6.37,1.56,-2.20,-0.39,-0.86,-0.02,10.73,-18.09,-59.62,83305752
5.75,3.94,-0.46,-0.50,-0.77,0.61,9.50,-17.96,-60.06,83305787
4.43,10.11,-1.59,-0.25,-0.40,-0.37,8.64,-17.20,-60.52,83305821
8.17,3.14,-2.26,-0.56,-0.44,-0.11,8.42,-16.62,-60.73,83305855
9.37,3.41,-3.88,0.02,-0.38,-0.33,8.29,-16.22,-61.14,83305889
10.39,2.27,-2.82,0.09,-0.21,-0.07,8.02,-16.28,-61.15,83305923
10.22,1.94,-1.81,0.28,-0.05,0.01,8.36,-16.49,-61.39,83305958
10.84,1.66,-0.92,0.33,0.05,0.28,7.99,-16.81,-60.29,83305992
13.77,-1.26,-0.42,0.16,0.02,0.79,7.94,-17.03,-61.28,83306026
12.95,-2.95,-2.85,0.65,0.53,-0.17,8.08,-17.76,-60.49,83306060
17.34,-4.97,-2.82,1.17,1.47,-0.53,9.94,-19.26,-60.26,83306094
12.37,1.26,-5.83,2.14,2.07,-1.01,12.64,-21.72,-58.29,83306128
5.57,3.07,-2.25,2.71,1.98,-0.08,15.57,-25.53,-55.57,83306163
3.83,9.50,-3.88,1.93,1.72,-0.31,17.17,-27.36,-54.28,83306197
4.91,2.12,0.43,1.38,1.70,0.80,18.93,-29.03,-52.27,83306231
5.85,3.22,2.80,1.84,1.72,1.18,19.73,-31.83,-49.75,83306265
6.60,7.97,0.31,3.37,1.89,0.75,20.39,-34.84,-46.17,83306299
6.68,7.59,-1.76,3.73,2.03,0.62,21.25,-38.56,-41.38,83306333
6.93,7.24,-4.61,4.26,1.82,0.23,21.82,-41.00,-36.33,83306368
4.74,7.34,-7.21,4.30,1.03,-0.16,22.57,-42.47,-31.44,83306402
16.46,10.17,25.87,0.60,0.77,-2.84,24.39,-41.93,-27.49,83306436
10.59,3.11,-7.68,1.30,-0.77,-1.74,25.55,-41.30,-27.07,83306470
13.74,1.18,1.30,0.55,-0.51,-0.76,26.21,-40.65,-27.39,83306504
8.32,2.73,-2.95,0.96,-0.65,-0.68,27.07,-40.06,-26.89,83306539
10.36,2.56,-2.20,0.45,-0.55,0.13,26.81,-40.41,-27.43,83306573
8.94,4.50,-2.37,0.54,-0.35,0.07,26.82,-40.27,-26.91,83306607
9.45,4.27,-0.50,0.56,-0.25,0.14,26.67,-40.85,-26.29,83306641
9.51,3.97,-0.30,0.50,-0.02,-0.16,26.34,-40.22,-26.28,83306675
9.53,2.46,0.43,0.21,0.07,0.02,26.59,-40.73,-25.71,83306709
9.77,2.47,1.51,0.53,0.10,-0.01,26.34,-40.62,-24.95,83306744
8.89,2.72,-1.27,0.62,0.22,-0.39,26.64,-40.60,-24.31,83306778
8.72,2.47,-3.04,0.57,0.24,-0.68,27.24,-40.21,-22.58,83306812
8.46,5.13,-3.74,0.16,-0.02,-0.94,28.40,-39.64,-22.20,83306846
9.82,2.38,-3.46,-0.20,-0.18,-1.38,29.54,-38.76,-22.99,83306880
16.51,1.01,-4.60,-0.08,0.51,-1.50,30.59,-37.46,-21.85,83306915
23.74,2.92,-4.69,0.87,1.62,-1.21,31.23,-36.03,-19.67,83306949
9.84,9.83,-8.82,3.15,2.61,-0.27,31.13,-35.21,-14.70,83306983
-4.34,10.20,-3.31,2.54,3.07,-0.96,29.58,-33.46,-8.14,83307017
2.49,10.07,-7.19,2.78,1.95,-1.99,29.63,-30.14,-4.12,83307051
2.85,1.49,-2.35,2.38,1.58,-1.74,29.63,-22.74,-0.60,83307085
3.55,3.25,0.15,2.77,1.11,-1.21,28.72,-22.71,1.87,83307120
5.46,1.68,-0.82,3.39,0.67,-0.92,27.89,-19.15,3.95,83307154
5.75,4.74,-3.53,4.42,0.19,-0.68,27.54,-14.41,4.44,83307188
7.06,5.58,-2.27,2.98,0.10,0.05,27.40,-10.89,4.33,83307222
8.59,7.47,-1.88,1.38,-0.28,0.48,27.42,-9.98,5.00,83307256
7.92,-2.78,2.08,-0.27,-0.01,2.22,27.35,-11.75,4.49,83307291
9.86,-10.65,-4.03,-3.92,0.12,4.99,27.77,-12.44,4.36,83307325
6.52,4.81,1.00,-0.22,-0.28,2.90,27.07,-14.50,2.98,83307359
1.48,6.38,-1.96,-1.37,-0.75,2.79,27.07,-17.57,2.32,83307393
7.38,5.38,-1.13,-1.83,-1.12,2.57,27.10,-20.53,0.56,83307427
11.82,6.57,-3.74,-2.09,-1.58,3.44,27.04,-25.39,-1.30,83307461
5.47,7.24,-1.81,-2.68,-1.32,3.81,25.36,-29.80,-4.74,83307496
6.56,8.94,0.38,-3.41,-1.70,3.22,23.41,-35.06,-8.96,83307530
9.84,4.57,-1.73,-4.19,-2.04,3.20,21.63,-38.98,-13.55,83307564
8.69,2.88,-3.41,-4.52,-1.71,2.95,19.18,-42.25,-19.73,83307598
9.30,3.21,-6.06,-4.39,-1.47,2.76,15.97,-44.20,-25.20,83307632
8.39,-0.07,-3.40,-4.63,-1.21,2.83,12.61,-44.80,-30.74,83307666
7.32,1.00,-4.62,-4.69,-1.13,2.75,8.67,-44.02,-37.04,83307701
9.28,3.17,-6.98,-4.84,-1.14,2.64,5.73,-42.05,-42.30,83307735
9.49,3.79,-6.88,-4.68,-1.06,1.93,2.91,-38.70,-47.37,83307769
6.79,7.80,-3.22,-4.35,-1.04,1.45,0.06,-35.05,-51.21,83307803
8.69,3.41,-3.91,-4.26,-1.11,1.62,-2.22,-31.16,-54.37,83307837
10.89,-1.62,-2.59,-3.28,-0.61,1.80,-4.00,-26.44,-56.18,83307872
9.46,-3.79,-5.34,-3.60,-0.55,2.12,-4.97,-22.19,-57.64,83307906
6.55,-5.19,-9.93,-3.99,-0.72,2.38,-6.93,-15.73,-58.78,83307940
6.21,-2.03,-6.57,-5.21,-1.22,2.75,-8.29,-9.91,-59.18,83307974
11.34,-1.52,-2.30,-6.52,-1.53,2.70,-8.92,-2.15,-57.53,83308008
8.25,2.71,1.14,-5.63,-1.50,2.06,-10.26,5.61,-54.22,83308042
11.41,3.24,-1.77,-5.55,-1.63,2.30,-10.58,11.97,-49.84,83308077
9.58,5.25,-6.06,-5.19,-1.73,2.07,-10.08,17.39,-44.58,83308111
7.56,2.42,-6.44,-5.25,-1.74,2.27,-8.73,21.44,-38.78,83308145
6.68,1.50,-5.95,-5.96,-1.78,2.57,-6.26,24.29,-32.01,83308179
5.13,-6.32,-2.73,-5.41,-1.65,2.65,-3.03,25.67,-24.17,83308213
13.51,1.20,-5.75,-4.41,-1.57,2.53,0.53,25.34,-18.20,83308248
9.95,3.93,-4.85,-4.74,-1.40,1.99,3.35,24.45,-11.58,83308282
4.68,8.87,-4.23,-5.13,-1.53,2.32,6.78,21.29,-6.15,83308316
8.44,4.84,-8.94,-5.25,-1.55,2.02,9.94,17.11,-1.24,83308350
6.09,6.63,-9.79,-5.45,-1.63,1.37,12.80,11.74,4.12,83308384
5.92,7.11,-12.39,-6.62,-2.08,1.09,15.13,5.17,6.74,83308418
8.16,11.53,-14.64,-7.87,-2.78,-0.13,17.95,-4.49,9.06,83308453
11.41,-4.26,-13.49,-10.23,-4.29,-0.55,22.83,-14.29,6.09,83308487
4.49,22.19,-7.01,-16.31,-5.32,-2.86,27.23,-24.16,-1.32,83308521
22.12,-39.20,-0.95,-17.34,-4.97,2.97,29.79,-34.16,-19.70,83308555
9.67,4.42,-1.36,-2.30,-3.40,-1.36,31.44,-33.09,-25.26,83308589
-2.04,19.52,-16.20,0.42,-2.60,0.82,31.10,-33.02,-28.79,83308624
0.41,12.15,-8.88,-3.08,-2.53,2.06,28.41,-34.51,-33.32,83308658
5.07,9.40,-1.21,-5.26,-2.96,3.66,25.29,-35.25,-40.31,83308692
9.32,7.62,1.20,0.51,-1.74,0.89,21.38,-35.22,-43.12,83308726
-0.71,3.44,19.04,-2.89,1.04,-0.08,21.34,-34.83,-42.87,83308760
11.26,0.93,0.68,0.23,-0.26,0.50,20.56,-35.38,-43.38,83308794
26.33,-12.14,-10.58,0.50,-0.18,-0.19,20.83,-35.60,-43.16,83308829
14.88,-6.11,2.33,-1.07,-1.22,1.25,19.79,-35.72,-44.68,83308863
12.22,-6.53,6.80,-1.57,-0.63,1.58,17.63,-35.38,-46.61,83308897
10.50,-4.12,1.71,0.37,-0.34,1.36,15.99,-35.82,-46.36,83308931
9.58,1.03,-1.30,-0.63,-0.18,2.04,14.45,-36.83,-47.12,83308965
9.32,-0.33,-2.62,-1.18,-0.04,1.51,12.61,-36.39,-48.79,83309000
9.16,4.13,-3.40,0.42,-0.18,1.14,11.24,-37.47,-47.97,83309034
10.40,9.22,-1.84,0.07,0.16,1.17,10.19,-37.66,-47.60,83309068
10.07,6.86,0.64,-0.52,0.01,0.58,9.70,-38.03,-48.32,83309102
10.34,4.19,-0.22,-1.81,-0.52,-0.51,9.76,-36.45,-49.85,83309136
11.89,-3.73,-4.16,-2.39,-0.96,-0.49,9.57,-34.13,-52.73,83309170
9.35,0.36,-3.35,-0.84,-1.29,-2.12,9.98,-31.86,-53.39,83309205
8.66,-0.01,-1.50,-1.05,-1.22,-2.07,9.69,-29.89,-55.03,83309239
9.69,-1.15,-1.94,-1.38,-1.36,-2.44,10.20,-27.26,-56.31,83309273
9.79,-2.24,-1.45,-1.03,-1.32,-3.03,10.42,-25.02,-57.19,83309307
10.92,-1.88,-2.66,-0.51,-1.26,-2.08,10.19,-22.10,-57.75,83309341
10.88,-1.41,-1.79,-0.51,-0.96,-1.14,9.46,-20.75,-57.83,83309375
11.91,-0.03,-0.37,-0.66,-0.85,-0.47,9.12,-19.41,-58.83,83309410
10.84,0.08,0.60,-0.48,-0.60,0.23,7.91,-19.25,-59.60,83309444
10.81,2.52,2.96,0.11,-0.43,0.29,7.53,-19.28,-58.74,83309478
8.78,5.35,3.54,0.87,-0.22,0.36,7.83,-20.33,-58.92,83309512
4.71,6.17,-3.28,1.21,0.02,0.05,6.97,-21.12,-59.43,83309546
8.43,18.77,-8.21,-0.91,0.56,-1.75,8.18,-20.14,-59.18,83309581
4.66,7.03,-1.15,-5.02,0.75,-0.62,9.43,-14.13,-60.13,83309615
4.61,-2.28,4.35,-3.71,0.50,-0.11,10.71,-7.99,-59.79,83309649
0.38,-0.51,4.39,0.10,0.73,-0.27,11.55,-6.93,-58.73,83309683
17.83,-6.23,-4.50,0.81,-1.67,-4.47,11.40,-8.75,-59.95,83309717
7.92,-3.15,-4.02,1.28,-0.55,0.42,11.49,-9.98,-59.06,83309751
24.84,-1.78,-5.27,1.16,-0.90,1.49,9.88,-11.43,-60.60,83309786
11.73,-0.70,-1.72,-0.12,-0.59,1.10,10.10,-10.65,-60.36,83309820
6.76,3.63,-5.49,0.27,0.21,-0.01,9.91,-10.95,-59.87,83309854
9.21,3.95,-5.16,-0.73,-0.26,0.39,9.63,-10.44,-60.04,83309888
10.11,1.88,-2.15,-0.44,-0.13,0.23,9.44,-10.23,-60.46,83309922
8.70,3.77,-3.11,-0.18,0.11,-1.21,9.76,-9.37,-60.22,83309957
18.10,-1.17,-2.10,-1.53,-0.51,-1.42,9.46,-7.67,-60.82,83309991
21.94,-0.82,-5.78,-1.29,0.13,-2.10,9.06,-4.69,-60.38,83310025
15.86,3.01,-3.97,-0.70,0.04,-0.75,8.75,-3.83,-59.06,83310059
0.06,9.20,4.30,-0.24,1.05,0.18,9.81,-3.33,-59.57,83310093
3.30,14.26,-9.63,2.10,0.50,-2.57,10.17,-4.38,-59.22,83310127
4.49,-4.62,5.63,2.07,1.14,-1.04,10.87,-5.80,-59.06,83310162
0.47,1.37,-3.88,5.73,0.64,-0.82,12.22,-12.41,-58.93,83310196
3.92,5.12,-3.23,5.55,0.19,-0.48,12.83,-18.21,-58.23,83310230
6.06,6.22,-4.56,2.90,-0.40,0.54,12.53,-23.22,-57.79,83310264
6.99,7.73,-2.36,-0.37,-0.32,1.00,11.68,-24.10,-57.38,83310298
6.97,5.26,1.80,-2.39,-0.31,1.23,11.03,-22.81,-57.59,83310333
21.63,-14.58,3.88,-6.09,-0.09,2.21,10.38,-19.15,-59.05,83310367
12.31,4.98,2.09,-2.89,-0.77,0.68,9.31,-16.75,-59.63,83310401
7.90,5.61,7.34,-0.71,-0.13,0.67,8.61,-15.40,-59.79,83310435
7.09,2.80,4.52,0.78,1.16,0.41,9.11,-16.25,-59.40,83310469
9.00,5.41,-2.42,2.19,2.00,0.14,11.14,-18.84,-58.43,83310503
12.16,7.19,-7.61,3.63,2.87,0.16,14.76,-23.12,-55.99,83310538
5.92,5.54,-9.20,3.60,2.60,-0.18,17.95,-27.38,-52.66,83310572
9.13,2.08,-6.00,3.14,2.18,-0.51,20.33,-30.05,-48.19,83310606
10.77,0.91,-3.66,4.00,2.60,-0.37,22.71,-32.65,-44.48,83310640
10.16,1.77,-4.56,5.25,2.95,-0.36,24.42,-35.47,-38.31,83310674
9.56,0.20,-4.15,5.53,2.83,-0.07,25.99,-37.85,-29.09,83310708
9.46,0.93,-3.31,5.08,2.31,0.42,25.56,-38.48,-22.36,83310743
7.21,-0.44,-0.37,4.69,1.90,0.81,24.74,-38.76,-14.98,83310777
6.30,2.84,-1.38,3.72,1.25,1.44,23.05,-38.26,-10.04,83310811
9.27,3.00,-5.00,3.05,0.68,1.65,20.75,-37.72,-6.42,83310845
8.38,5.08,-8.22,1.99,0.23,1.41,18.62,-37.33,-3.80,83310879
9.26,1.19,-5.58,1.63,0.07,0.32,17.79,-36.44,-2.03,83310914
13.58,2.38,-4.41,4.33,0.96,-1.45,17.77,-32.58,2.88,83310948
8.87,5.91,-6.43,5.50,1.45,-2.31,17.61,-26.56,6.15,83310982
4.57,6.58,-10.08,4.45,1.06,-1.94,17.77,-20.33,9.95,83311016
7.78,5.64,-6.07,3.11,0.56,-1.25,16.34,-14.82,10.51,83311050
8.73,4.23,-3.44,2.47,0.38,-0.99,15.93,-11.84,11.44,83311084
8.72,-0.82,1.09,1.71,0.10,-0.36,15.71,-9.43,11.30,83311119
10.66,-2.82,4.36,2.19,0.41,0.11,14.72,-6.33,10.61,83311153
10.83,2.47,-3.19,3.42,1.06,-0.22,14.22,-3.98,11.12,83311187
4.63,6.17,-12.17,3.26,0.95,-1.04,11.65,1.46,10.32,83311221
5.06,6.35,-8.60,1.57,0.31,-0.73,10.99,3.54,9.85,83311255
12.12,3.35,1.51,2.01,0.72,-1.22,10.45,6.31,9.13,83311290
10.55,1.80,-0.48,4.63,2.22,-1.97,7.18,10.23,7.26,83311324
9.56,0.87,-6.53,5.74,2.87,-1.92,3.36,15.52,3.45,83311358
10.09,-0.66,-10.30,6.70,3.32,-1.80,-1.33,20.93,-3.90,83311392
10.10,-2.17,-8.51,7.91,3.78,-1.83,-5.00,24.36,-13.24,83311426
6.15,-2.03,-8.43,9.22,4.16,-1.85,-7.53,25.18,-26.32,83311460
7.54,-0.04,-7.90,9.59,4.08,-1.78,-8.89,22.61,-36.99,83311495
5.78,2.90,-7.95,9.80,3.62,-1.91,-8.52,16.16,-47.97,83311529
7.25,1.53,-7.75,7.51,2.55,-1.38,-6.59,7.42,-55.13,83311563
9.94,-1.02,-7.65,5.87,1.91,-0.86,-5.14,0.58,-58.04,83311597
7.02,0.00,-6.41,5.02,1.56,-0.60,-3.55,-5.69,-60.04,83311631
6.98,-1.40,-4.60,3.56,1.19,0.01,-2.09,-10.19,-59.97,83311666
9.74,0.53,-6.63,3.08,0.88,0.07,-1.10,-13.84,-60.26,83311700
9.00,3.96,-5.57,2.58,0.67,-0.46,0.41,-18.06,-60.30,83311734
9.14,2.71,-5.67,2.43,0.68,-0.76,0.64,-20.11,-59.50,83311768
8.98,6.64,-4.30,3.74,0.99,-1.72,2.22,-23.85,-58.21,83311802
9.58,7.11,-3.40,3.56,1.13,-2.63,4.62,-28.16,-55.54,83311836
6.44,4.44,-5.61,3.19,1.13,-2.31,7.85,-31.28,-54.43,83311871
9.47,1.57,-3.81,3.15,1.10,-1.92,10.89,-33.91,-50.80,83311905
11.94,-1.55,-2.45,4.50,1.65,-1.56,13.15,-36.51,-46.93,83311939
6.70,0.22,-4.92,5.99,2.12,-1.42,16.12,-39.73,-39.35,83311973
6.72,1.90,-3.46,4.86,1.66,-1.12,17.98,-41.49,-33.79,83312007
9.19,1.32,-2.77,3.95,1.32,-0.78,19.42,-42.41,-28.65,83312041
9.95,0.64,-3.94,3.64,1.33,-0.53,19.75,-42.33,-23.22,83312076
9.00,3.76,-6.34,4.00,1.40,-0.90,20.53,-41.76,-18.21,83312110
5.78,6.34,-7.70,3.72,1.14,-1.24,21.34,-40.31,-12.69,83312144
7.19,5.58,-5.83,2.88,0.90,-1.24,22.04,-37.78,-9.00,83312178
9.24,4.95,-3.64,3.23,1.04,-1.93,23.22,-34.90,-4.95,83312212
6.82,4.17,-5.36,4.04,1.37,-2.09,23.25,-30.71,-0.64,83312247
8.93,2.09,-4.52,4.21,1.47,-1.82,22.99,-26.10,2.72,83312281
10.36,-0.86,-1.83,4.91,1.77,-1.52,22.36,-20.80,6.12,83312315
9.12,2.15,1.44,4.30,1.73,-0.84,20.52,-14.69,8.92,83312349
9.04,-0.78,-1.88,4.75,1.92,-0.63,18.91,-9.65,9.87,83312383
7.75,4.48,-6.95,3.45,1.23,-0.02,16.44,-4.36,11.22,83312417
7.53,4.45,-6.87,1.69,0.47,0.24,16.38,-2.85,9.84,83312452
9.68,4.36,-3.82,0.97,0.16,-0.13,15.90,-1.51,10.49,83312486
11.25,1.56,-3.94,3.73,1.31,-1.83,14.34,2.21,9.85,83312520
8.63,1.63,-6.13,6.46,2.31,-2.78,10.22,9.12,7.02,83312554
8.07,3.03,-6.08,7.34,2.72,-3.02,5.19,17.29,1.18,83312588
8.86,-1.33,-2.51,7.79,2.83,-2.44,0.92,22.26,-6.69,83312623
8.52,-2.78,-3.51,7.91,2.80,-1.98,-4.00,25.24,-15.13,83312657
8.27,0.22,-4.52,8.23,2.59,-1.73,-6.26,26.24,-27.99,83312691
8.61,0.51,-5.28,7.57,2.29,-1.53,-7.02,23.75,-36.54,83312725
6.78,3.23,-6.41,7.10,1.87,-1.73,-7.61,18.85,-45.51,83312759
7.28,4.83,-5.56,5.96,1.34,-1.84,-7.78,13.12,-51.43,83312793
8.62,2.33,-4.67,5.21,1.09,-1.74,-8.11,8.10,-55.54,83312828
8.71,2.71,-3.48,4.38,0.84,-1.72,-8.29,1.49,-57.75,83312862
8.03,0.98,-4.67,3.25,0.55,-1.36,-7.53,-2.57,-59.02,83312896
5.97,1.35,-5.06,1.77,0.18,-0.77,-7.10,-5.29,-59.21,83312930
10.58,-1.33,-1.15,1.13,0.08,-0.31,-7.02,-6.08,-59.73,83312964
7.37,3.80,-0.01,2.19,0.49,-0.40,-6.55,-8.64,-60.41,83312999
10.25,3.37,-1.64,2.09,0.56,-0.01,-5.76,-10.63,-60.44,83313033
11.13,2.93,-4.69,1.68,0.39,0.14,-5.45,-12.93,-60.41,83313067
9.86,-1.73,-4.92,0.76,0.10,0.51,-4.93,-14.29,-59.65,83313101
7.72,2.91,-2.71,1.21,0.02,0.62,-5.25,-15.16,-60.01,83313135
9.85,5.76,-7.09,3.23,0.65,-0.66,-4.71,-17.55,-59.79,83313169
8.96,10.98,-6.57,4.29,0.80,-2.45,-3.24,-22.86,-59.15,83313204
7.33,6.54,-0.49,3.25,0.74,-3.45,-0.64,-27.24,-57.13,83313238
10.04,-0.27,-0.89,2.94,0.75,-2.14,2.84,-30.61,-54.93,83313272
10.10,-2.69,-2.68,3.75,1.03,-1.70,4.98,-33.24,-53.03,83313306
6.67,1.88,-1.30,3.97,1.06,-1.65,7.45,-36.61,-48.66,83313340
9.97,-0.80,-2.59,3.83,1.06,-1.56,9.59,-39.54,-44.15,83313375
10.47,0.35,-2.87,4.48,1.23,-1.84,12.50,-41.84,-39.89,83313409
9.17,0.62,-3.93,4.53,1.30,-1.80,15.32,-43.01,-34.17,83313443
9.14,-2.26,-3.79,4.38,1.36,-1.35,17.89,-43.25,-28.72,83313477
8.86,1.51,-3.29,5.50,1.65,-1.19,18.77,-43.29,-22.32,83313511
7.72,3.12,-4.77,3.80,1.21,-0.50,20.23,-41.83,-15.81,83313545
7.59,3.77,-5.44,2.68,0.78,-0.11,19.47,-40.94,-12.53,83313580
8.76,4.34,-5.19,2.44,0.53,-0.69,19.75,-39.49,-9.60,83313614
8.87,1.80,-2.89,3.13,0.59,-1.04,20.13,-37.74,-6.37,83313648
8.38,4.04,-2.01,3.69,0.75,-1.34,20.34,-34.71,-2.98,83313682
8.83,3.97,-2.30,3.54,0.65,-1.37,21.22,-30.94,1.04,83313716
8.24,3.54,-2.83,3.50,0.66,-1.30,20.65,-27.59,3.98,83313750
8.68,0.01,-3.35,3.48,0.64,-1.08,20.97,-22.93,6.49,83313785
9.49,0.04,-2.62,4.16,0.79,-1.26,20.52,-18.74,7.88,83313819
10.41,-1.70,-1.94,4.46,0.88,-1.30,19.58,-13.67,9.43,83313853
7.76,0.84,-1.24,5.50,1.07,-1.33,18.46,-6.50,10.25,83313887
9.29,0.89,-1.41,5.29,1.11,-1.00,16.75,-0.07,9.41,83313921
9.83,1.61,-2.23,4.89,0.99,-0.98,14.78,6.34,8.05,83313956
9.36,-0.78,-5.56,4.05,0.67,-1.09,13.34,10.74,4.59,83313990
10.06,-2.54,-3.94,4.33,0.75,-1.30,11.90,14.00,2.10,83314024
9.69,-2.20,-1.90,4.23,0.87,-1.37,10.00,18.14,-1.37,83314058
10.85,-3.34,-1.08,3.85,1.02,-0.94,8.07,21.02,-5.20,83314092
12.87,-4.57,-1.86,3.91,1.11,-0.98,6.47,23.22,-9.06,83314126
9.10,-2.03,-4.75,3.70,0.86,-1.69,4.69,24.93,-13.81,83314161
6.19,0.12,-5.29,2.40,0.57,-1.62,2.86,25.72,-17.35,83314195
9.27,0.96,-5.78,1.98,0.32,-1.75,0.23,26.24,-19.82,83314229
7.53,2.82,-6.64,1.68,0.19,-1.82,-1.77,26.50,-21.79,83314263
5.35,6.23,-6.44,1.63,0.21,-1.84,-3.89,26.44,-23.25,83314297
6.60,6.97,-5.03,1.27,0.51,-1.58,-5.88,26.06,-25.21,83314332
7.43,8.50,-4.40,1.43,0.65,-1.27,-7.42,26.00,-27.10,83314366
4.91,10.59,-7.13,1.34,0.83,-0.86,-9.18,25.52,-28.79,83314400
5.36,7.57,-1.56,0.66,0.96,-0.55,-9.28,24.98,-30.71,83314434
9.50,7.08,1.43,0.38,0.38,-0.45,-10.08,24.93,-30.52,83314468
7.83,5.52,1.67,0.09,0.33,0.09,-9.78,24.55,-30.72,83314502
8.28,2.47,1.21,0.56,0.36,-0.44,-9.88,25.05,-32.32,83314537
10.01,0.09,0.83,1.24,0.52,-1.02,-11.02,23.78,-33.57,83314571
13.01,0.94,-1.78,1.96,0.69,-1.21,-12.12,23.38,-36.04,83314605
8.51,4.42,-1.67,2.01,0.93,-0.48,-12.26,21.73,-38.40,83314639
6.57,7.35,-2.25,1.10,0.48,-0.56,-12.45,21.28,-40.41,83314673
8.19,5.25,-1.60,0.28,0.32,-0.36,-12.66,20.32,-40.72,83314708
9.49,3.78,0.23,-0.09,0.16,0.02,-12.51,20.53,-40.91,83314742
9.03,3.60,0.52,0.21,0.13,0.04,-12.80,20.65,-41.17,83314776
8.23,4.33,0.46,0.57,0.33,-0.21,-12.16,19.92,-41.76,83314810
6.75,4.87,0.42,0.69,0.52,-0.32,-12.07,19.50,-42.25,83314844
6.00,3.89,0.08,0.67,0.66,-0.22,-11.74,19.58,-43.61,83314878
7.39,3.10,-1.43,0.67,0.68,-0.06,-11.08,19.07,-44.65,83314913
7.48,0.52,-1.34,0.30,0.59,0.90,-10.38,18.59,-44.91,83314947
8.84,3.40,-1.92,0.47,0.43,1.44,-8.30,18.96,-45.70,83314981
8.86,-1.49,0.48,0.46,0.40,2.29,-5.47,19.75,-45.31,83315015
8.19,1.55,1.75,1.28,0.65,2.69,-2.54,18.62,-47.14,83315049
39.10,6.00,-8.78,2.33,0.98,2.24,2.12,17.16,-48.68,83315083
-0.11,15.20,-12.32,2.96,0.33,-0.03,3.83,14.45,-52.08,83315118
10.65,8.22,-0.33,0.94,0.40,1.48,6.08,13.11,-51.68,83315152
9.29,-2.78,0.20,-0.70,0.40,0.86,6.77,13.21,-51.55,83315186
9.94,4.34,1.95,0.26,0.20,-0.29,6.36,13.07,-52.15,83315220
9.52,1.06,1.37,-0.24,0.24,0.06,7.23,12.86,-51.37,83315254
9.65,-0.37,2.47,0.02,0.06,0.13,7.91,13.15,-51.65,83315289
9.80,-0.33,1.22,0.08,0.07,0.37,8.49,13.34,-51.26,83315323
9.62,-0.44,0.68,-0.18,0.03,0.49,8.74,13.02,-51.30,83315357
9.77,-0.64,-0.35,-0.13,0.03,0.52,9.60,13.36,-50.94,83315391
9.50,-1.41,-0.20,-0.28,0.13,0.65,9.85,13.15,-50.32,83315425
9.64,-0.20,0.42,-0.06,0.15,0.53,10.86,13.42,-50.09,83315459
9.62,-0.23,1.27,-0.05,0.11,0.34,11.77,12.92,-49.33,83315494
9.58,-1.08,2.50,-0.11,0.07,0.33,12.28,12.91,-49.71,83315528
9.65,-0.87,2.33,-0.05,-0.01,0.36,12.36,13.12,-49.58,83315562
9.53,-0.98,1.88,-0.19,0.01,0.48,13.05,13.10,-49.14,83315596
9.53,-1.23,0.83,-0.21,-0.02,0.52,13.78,13.08,-49.21,83315630
9.45,-1.23,0.71,-0.24,-0.02,0.37,14.35,13.26,-48.25,83315665
9.61,-1.54,0.98,-0.22,-0.06,0.14,14.45,13.15,-49.11,83315699
9.45,-1.76,1.40,-0.12,-0.12,0.02,14.32,13.23,-47.97,83315733
9.44,-2.12,2.07,-0.08,-0.13,0.05,14.62,13.30,-47.69,83315767
9.41,-1.30,1.88,-0.07,-0.12,0.12,15.10,13.33,-48.04,83315801
9.58,-1.19,1.37,-0.26,-0.08,0.14,15.23,13.27,-47.90,83315835
9.61,-1.51,0.75,-0.30,-0.11,0.01,15.39,13.67,-47.49,83315870
9.42,-1.36,1.37,-0.25,-0.17,-0.04,15.80,14.21,-47.73,83315904
9.48,-2.44,1.18,-0.27,-0.22,-0.02,15.38,14.29,-47.09,83315938
9.36,-1.26,1.60,0.11,-0.30,-0.21,15.30,14.07,-47.40,83315972
7.71,-4.60,3.10,-0.59,0.16,0.36,15.35,14.16,-46.55,83316006
9.22,-3.84,1.47,-0.52,0.06,0.07,15.62,14.69,-46.73,83316041
9.38,-2.76,0.81,-0.10,-0.25,-0.10,15.29,15.42,-46.92,83316075
9.46,-2.41,0.25,-0.02,-0.23,-0.19,15.10,15.36,-46.16,83316109
9.57,-2.11,0.66,-0.10,-0.15,-0.17,14.75,15.49,-45.95,83316143
9.49,-2.37,0.88,-0.02,-0.13,-0.17,14.78,15.48,-45.41,83316177
9.31,-2.10,1.50,0.06,-0.14,-0.09,14.63,15.64,-46.27,83316211
9.27,-1.89,0.72,0.38,-0.12,-0.01,14.50,15.13,-45.12,83316246
9.63,-2.50,0.52,0.32,0.01,0.15,15.00,15.36,-46.27,83316280
9.26,-2.19,0.65,0.71,-0.03,-0.05,14.86,14.69,-47.38,83316314
9.73,-3.10,1.49,1.48,-0.21,-0.37,14.44,13.77,-47.21,83316348
10.61,-3.84,2.05,0.10,-0.44,-1.94,13.40,14.63,-48.63,83316382
9.53,-1.25,1.68,-0.30,-0.37,-1.24,11.50,15.65,-48.06,83316416
9.00,1.56,0.55,-0.58,-0.62,-1.21,10.83,16.43,-48.14,83316451
9.33,-1.09,1.12,-0.51,-1.44,-1.24,8.78,16.59,-47.79,83316485
7.85,0.73,2.38,0.28,-1.63,-1.01,7.04,17.14,-48.28,83316519
10.73,-0.11,-1.86,0.64,-2.56,-0.74,3.61,16.56,-49.85,83316553
9.74,1.12,-2.60,0.68,-1.77,-0.02,1.93,16.63,-50.07,83316587
8.65,0.63,-1.67,0.37,-0.98,0.29,1.18,15.99,-51.13,83316622
8.58,1.57,-2.73,0.55,-2.30,0.43,0.34,15.99,-51.77,83316656
9.74,1.58,-3.15,0.34,-1.48,-0.18,-1.68,15.42,-51.80,83316690
9.76,0.38,-3.52,0.12,-1.04,-0.28,-2.91,15.04,-51.90,83316724
9.02,-0.85,-2.28,-0.15,-0.01,-0.11,-3.23,15.38,-51.68,83316758
8.67,-0.10,-3.36,0.05,-0.52,0.06,-2.65,15.30,-52.13,83316792
8.10,-1.34,-4.14,-0.32,-0.61,0.01,-3.27,15.80,-51.42,83316827
8.50,-0.72,-4.63,-0.83,-1.43,-0.14,-4.09,16.33,-50.42,83316861
9.08,0.25,-4.53,-0.50,-0.92,0.02,-5.64,16.18,-49.68,83316895
8.98,1.04,-4.76,-0.31,-0.40,-0.02,-5.58,16.91,-49.84,83316929
8.64,0.87,-4.49,-0.45,0.39,-0.31,-5.13,17.20,-49.08,83316963
8.43,1.37,-4.92,-0.50,0.32,-0.45,-4.78,17.68,-48.45,83316998
8.25,1.38,-4.20,-0.55,0.52,-0.23,-4.91,18.33,-47.37,83317032
8.72,0.77,-3.84,-0.38,0.58,0.07,-4.57,18.68,-48.19,83317066
9.10,0.70,-4.11,-0.32,0.51,0.03,-4.03,19.20,-47.75,83317100
9.19,0.93,-3.32,-0.54,1.38,0.12,-2.84,19.15,-46.38,83317134
9.67,1.24,-3.55,-0.73,1.97,0.28,-1.30,19.32,-45.73,83317168
10.22,0.07,-3.06,-1.09,3.14,0.43,1.30,20.83,-43.80,83317203
4.87,0.68,5.93,0.14,2.69,-0.03,3.41,20.87,-43.64,83317237
9.30,1.84,-0.14,0.23,0.30,0.08,4.41,20.99,-44.48,83317271
9.67,0.00,-0.55,-0.26,-0.02,0.02,4.24,21.62,-43.67,83317305
10.93,-1.33,-0.68,0.23,0.19,-0.14,4.17,21.63,-43.93,83317339
8.89,2.42,-0.33,2.10,0.41,-0.07,4.08,20.89,-45.09,83317374
9.53,2.16,-0.62,-2.30,-0.50,-0.29,4.60,21.24,-43.77,83317408
9.74,-1.82,-1.81,-6.79,0.10,-0.27,4.22,24.19,-36.76,83317442
9.29,2.39,0.28,-0.06,0.12,-0.09,4.00,25.27,-34.54,83317476
9.81,0.16,-0.45,0.87,0.13,-0.11,4.02,25.27,-35.17,83317510
17.62,-4.10,1.85,-1.41,-0.60,0.02,3.95,24.98,-34.55,83317544
10.95,2.60,3.79,1.04,-0.23,0.17,4.43,24.70,-34.62,83317579
9.98,1.79,-0.83,0.45,-0.22,0.11,4.95,24.25,-35.19,83317613
5.69,5.02,-1.85,0.07,-0.43,0.31,4.43,24.42,-35.81,83317647
7.63,3.68,-0.10,0.76,0.18,-0.11,5.36,24.44,-36.23,83317681
9.64,2.09,1.55,0.21,0.05,-0.27,5.35,23.82,-35.82,83317715
9.58,0.84,1.73,0.15,0.01,-0.31,4.71,24.26,-36.00,83317750
9.60,0.41,0.58,0.09,-0.05,-0.18,4.40,24.13,-36.14,83317784
9.72,0.77,-0.47,0.14,-0.06,-0.17,4.46,24.29,-36.70,83317818
9.73,1.10,-0.25,0.15,-0.07,-0.26,4.08,24.99,-37.62,83317852
9.63,1.32,0.12,0.16,-0.04,-0.38,3.73,24.58,-36.03,83317886
9.58,1.70,0.16,0.19,-0.09,-0.51,3.00,24.60,-36.92,83317920
9.48,2.23,0.06,0.37,-0.09,-0.78,2.32,24.57,-37.05,83317955
8.85,5.36,0.91,0.60,-0.07,-1.18,0.95,23.93,-37.42,83317989
10.49,3.10,-0.25,-0.07,-0.58,-1.47,-1.27,24.48,-37.36,83318023
8.46,2.91,1.99,0.03,-0.35,-1.26,-2.66,24.44,-37.49,83318057
9.40,1.42,0.08,-0.22,-0.55,-0.68,-4.30,24.57,-37.26,83318091
9.69,1.90,-0.02,-0.24,-0.58,-0.30,-4.50,24.33,-36.69,83318125
8.79,3.68,0.20,-0.04,-0.43,-0.35,-5.19,24.51,-36.70,83318160
9.20,4.46,-0.77,-0.12,-0.48,-0.45,-5.70,24.07,-36.09,83318194
9.18,4.83,-0.83,-0.23,-0.57,-0.49,-6.11,24.55,-35.17,83318228
6.97,5.02,-4.63,-0.92,-1.04,-0.54,-6.90,24.67,-33.46,83318262
10.81,4.78,-1.76,-1.42,-1.68,-0.51,-8.01,24.96,-31.99,83318296
10.90,4.48,0.26,-1.36,-1.61,-0.58,-8.97,25.55,-29.86,83318331
10.03,5.11,1.15,-0.90,-1.38,-0.58,-10.06,25.88,-27.62,83318365
8.57,6.96,0.56,-0.55,-1.27,-0.55,-10.82,25.15,-26.26,83318399
8.46,6.79,-0.38,-0.50,-1.29,-0.74,-11.62,25.12,-26.21,83318433
7.76,6.09,-2.59,-0.90,-1.46,-0.81,-12.17,24.39,-24.57,83318467
3.35,7.19,-5.87,-0.81,-1.51,-1.20,-13.86,24.70,-21.98,83318501
8.46,9.17,-1.37,-4.00,-2.22,-1.92,-15.93,23.02,-18.12,83318536
9.43,-0.94,-0.64,-3.49,-1.47,-1.49,-16.84,20.91,-13.12,83318570
9.16,0.35,-0.67,-2.34,-0.97,-1.06,-17.44,19.01,-9.22,83318604
7.19,3.01,-0.31,-1.84,-0.91,-0.24,-17.55,18.18,-7.32,83318638
7.20,2.59,-0.89,-1.98,-1.25,0.30,-16.38,16.95,-4.38,83318672
6.15,4.62,0.40,-1.73,-1.35,0.39,-15.19,15.52,-2.47,83318707
11.21,18.33,-1.60,-1.01,-1.42,0.37,-13.08,15.19,-0.28,83318741
7.00,1.93,0.81,-0.51,-1.70,0.53,-12.45,13.97,0.56,83318775
5.54,6.50,2.18,-0.36,-1.23,0.94,-10.74,14.32,2.60,83318809
3.67,4.92,0.63,-0.15,-0.90,-0.01,-9.16,14.31,2.44,83318843
9.80,5.59,-0.90,0.27,-0.29,-0.71,-9.75,14.21,2.31,83318877
6.35,7.32,-3.91,0.94,0.52,0.13,-9.84,15.16,0.53,83318912
2.35,9.38,-3.62,1.52,1.21,0.12,-10.39,16.40,-1.36,83318946
3.66,9.17,-4.12,2.14,1.65,-0.48,-11.87,17.48,-3.98,83318980
3.73,7.84,-6.23,2.50,1.92,-0.84,-13.74,18.93,-6.78,83319014
