ax,ay,az,gx,gy,gz,mx,my,mz,timestamp
-1.12,9.60,-1.83,0.06,0.14,0.04,43.22,1.94,-34.30,13158
-1.09,9.40,-1.76,-0.06,0.27,-0.13,42.90,2.47,-34.29,13192
-1.46,9.41,-1.73,-0.06,0.20,-0.12,43.41,2.41,-34.62,13226
-1.23,9.29,-1.64,-0.03,0.01,-0.12,43.45,2.22,-34.55,13260
-3.21,9.54,-1.45,-0.08,-0.29,0.08,42.81,1.87,-34.96,13294
-1.08,10.11,-1.85,-0.04,-0.60,-0.33,42.78,2.57,-36.39,13329
0.36,2.67,-2.78,-0.96,-0.26,-1.57,41.71,4.18,-36.90,13363
0.16,10.37,-1.64,-0.19,0.04,0.01,42.27,4.12,-37.12,13397
-3.13,9.08,-1.33,-0.43,0.04,-0.32,41.99,4.71,-36.01,13431
-3.19,9.55,-2.53,-0.34,-0.15,-0.70,41.38,5.71,-36.28,13465
-0.33,9.66,-2.14,-0.10,-0.17,-0.85,41.06,7.38,-37.47,13500
-0.61,10.43,-1.77,-0.06,0.03,-0.68,39.83,8.26,-37.61,13534
-2.02,9.57,-2.35,-0.17,0.08,-0.50,39.99,9.06,-36.71,13568
-3.35,8.51,-2.32,-0.22,0.07,-0.50,39.96,9.49,-36.52,13602
-4.90,8.66,-1.33,-0.12,0.27,-0.40,39.58,9.98,-36.95,13636
-4.23,7.98,-3.15,-0.25,-0.07,-0.57,38.70,11.24,-37.04,13670
-3.50,8.77,-3.13,-0.11,-0.11,-0.45,37.97,12.23,-37.72,13705
-1.22,10.69,-4.40,-0.11,-0.53,-0.55,37.53,12.28,-37.94,13739
-1.69,12.30,0.95,0.02,-0.66,-0.79,36.44,13.37,-40.03,13773
5.51,16.65,-11.79,-0.40,-2.23,-2.12,33.09,15.42,-42.50,13807
1.35,22.78,-11.48,-0.26,-1.32,-2.12,30.08,16.75,-43.10,13841
-7.91,3.86,-3.07,0.14,-0.72,-2.21,27.05,16.46,-44.65,13875
-3.93,8.04,-7.17,-0.27,-0.33,-2.93,23.28,17.26,-45.48,13910
3.29,1.57,0.30,-1.26,3.87,-2.51,23.21,19.07,-42.33,13944
4.56,2.25,-0.23,-0.93,5.10,-0.83,26.51,19.18,-36.57,13978
-1.45,2.89,-0.73,-0.69,3.97,1.31,30.65,17.52,-31.77,14012
-2.76,6.86,1.62,-0.52,2.33,2.86,35.31,14.03,-26.94,14046
-3.43,7.75,1.29,-0.85,2.35,2.69,39.24,9.92,-22.52,14081
-17.74,0.08,-2.92,-0.70,2.32,1.46,41.32,6.56,-17.79,14115
3.27,38.68,14.20,-0.23,-0.68,3.08,42.08,1.87,-18.69,14149
-11.10,8.15,1.79,0.21,-0.54,-0.37,41.46,4.09,-18.71,14183
-3.68,9.99,-2.15,0.15,0.08,-0.36,42.02,3.22,-18.31,14217
-3.52,10.26,-1.49,0.07,-0.56,-0.14,41.63,1.26,-17.95,14251
-2.74,9.94,-3.52,-0.17,-0.40,0.35,41.65,-0.82,-18.17,14286
-3.80,8.99,-2.09,-0.33,-0.16,0.41,41.64,-3.51,-18.43,14320
-4.09,7.60,-4.30,-0.60,0.10,0.16,41.68,-5.57,-19.45,14354
-5.22,7.68,-2.71,-0.56,0.22,-0.01,41.35,-7.53,-19.20,14388
-2.96,8.62,-2.90,-0.61,0.13,-0.38,41.11,-7.98,-18.59,14422
-3.35,8.57,-3.72,-0.68,0.43,-0.61,40.89,-9.22,-18.63,14457
-1.81,9.70,-2.37,-0.76,0.67,-0.84,40.87,-9.25,-18.49,14491
-0.99,10.70,2.17,-1.14,1.51,-0.71,40.59,-9.05,-17.85,14525
-5.29,9.23,-6.22,-1.84,1.36,-1.69,41.38,-8.75,-16.06,14559
-0.84,9.13,-1.15,-0.25,0.44,0.22,41.45,-8.92,-16.65,14593
-9.45,5.10,-0.38,-0.19,0.32,-0.19,41.46,-9.72,-17.61,14627
-6.89,11.27,-0.24,0.27,-0.33,0.17,41.74,-10.60,-18.80,14662
1.89,14.46,-1.18,0.17,-0.75,1.01,42.02,-12.69,-21.53,14696
6.57,17.42,-0.79,0.86,-0.97,3.02,41.73,-17.70,-24.42,14730
5.64,19.99,-1.37,0.29,-3.35,3.45,39.37,-26.03,-30.82,14764
-15.31,-0.63,-27.16,2.49,-6.72,2.78,30.62,-34.24,-41.11,14798
2.31,-0.63,-16.11,4.22,-8.71,2.76,20.83,-39.26,-45.70,14833
-11.35,-5.36,-4.32,4.48,-6.88,1.16,12.61,-45.56,-45.57,14867
-1.92,3.98,16.51,3.21,-5.67,-0.81,9.30,-50.16,-43.64,14901
39.16,-19.44,39.20,-2.91,-1.15,0.20,12.35,-49.71,-47.59,14935
-27.52,-27.23,34.19,-3.48,-2.41,-10.23,19.13,-45.13,-50.91,14969
6.87,10.73,-2.80,0.40,-0.10,-1.28,21.40,-44.30,-51.08,15003
-2.38,10.62,-0.16,0.78,-1.12,0.85,21.05,-45.81,-50.26,15038
-10.91,11.66,0.40,-0.39,-0.45,0.69,19.45,-45.78,-51.81,15072
-10.88,9.92,-2.06,-1.64,-0.29,0.38,18.84,-43.07,-54.81,15106
-7.08,11.18,-4.33,-2.24,1.71,-0.60,20.07,-37.36,-57.16,15140
19.18,27.08,-18.95,-3.17,7.18,-5.92,28.21,-30.02,-53.86,15174
17.91,6.03,-17.88,-2.29,10.36,-10.35,41.74,-18.30,-42.36,15208
22.38,-6.36,9.40,0.15,1.94,0.48,46.32,-13.71,-35.27,15243
14.97,33.83,14.56,0.07,8.04,3.05,50.47,-19.45,-25.30,15277
-11.48,-34.97,30.37,-10.18,-4.80,-4.08,56.02,-20.78,-17.03,15311
-28.63,11.06,-39.15,-4.00,0.93,-5.22,57.02,-26.38,-14.05,15345
8.83,6.83,-9.08,-0.02,0.30,-0.32,57.23,-27.00,-15.17,15379
-3.97,12.94,3.11,-0.76,1.41,0.51,56.17,-33.35,-12.60,15414
-7.74,0.58,5.86,-2.87,1.75,-2.00,55.50,-36.52,-12.51,15448
-5.29,11.73,-8.74,-2.18,1.66,0.46,53.98,-40.22,-12.36,15482
-3.56,7.42,-2.50,-0.07,0.30,1.55,52.00,-46.71,-13.45,15516
1.94,11.42,-1.47,-0.86,-0.48,1.82,48.83,-51.80,-15.38,15550
1.05,13.52,-2.49,-1.27,-0.87,2.41,42.01,-58.84,-20.64,15584
13.28,14.10,2.59,-1.35,-0.59,3.71,33.21,-64.12,-25.55,15619
-20.89,-3.12,-32.20,0.99,-0.56,1.10,26.91,-67.76,-25.96,15653
-9.64,8.76,-19.57,1.50,-9.25,4.43,19.91,-68.71,-27.08,15687
-1.87,2.52,-19.51,8.14,-10.78,2.22,12.67,-68.42,-19.03,15721
-38.06,-32.04,-17.94,5.00,-4.47,0.25,12.80,-65.49,-12.88,15755
4.86,13.02,38.65,-2.33,3.74,0.41,12.48,-64.57,-12.22,15790
10.44,-24.40,31.00,0.68,-3.12,-9.92,15.71,-63.58,-12.83,15824
10.52,14.34,-18.65,0.33,0.86,-0.60,19.26,-61.49,-14.21,15858
-5.52,15.62,12.86,-0.74,-0.92,0.21,17.64,-60.55,-13.94,15892
-6.69,6.54,-2.25,-2.16,0.12,-1.01,19.28,-60.06,-17.28,15926
-4.80,8.73,-0.76,-1.25,-0.97,-0.05,19.22,-58.89,-21.24,15960
-4.49,0.59,-8.10,-1.30,-0.12,-1.28,20.62,-57.80,-23.63,15995
-9.81,3.68,-4.33,-0.16,-0.41,-0.09,21.40,-56.15,-24.93,16029
-2.29,7.90,-3.31,0.18,-1.65,-1.12,22.57,-54.03,-26.50,16063
-2.08,9.23,-7.52,0.95,-1.94,-0.61,24.33,-52.18,-27.11,16097
-2.31,12.59,-7.80,1.09,-1.78,0.72,23.06,-51.24,-27.39,16131
-6.66,16.32,-5.16,0.34,-0.37,1.17,20.72,-51.51,-28.53,16166
-3.33,20.21,-11.87,0.53,-0.15,-0.52,19.50,-50.61,-27.73,16200
-4.28,34.43,-17.20,0.61,0.51,-1.26,18.91,-49.46,-27.45,16234
-0.72,7.58,-15.58,-2.31,-0.01,-5.58,22.35,-43.34,-31.54,16268
14.85,-3.89,2.56,-5.04,5.06,-4.48,29.03,-37.15,-27.39,16302
29.24,-11.61,8.70,-3.52,5.48,-0.18,31.31,-36.69,-23.55,16336
12.61,10.61,4.74,-4.05,7.76,3.35,29.49,-41.38,-17.85,16371
-18.95,-5.72,-23.78,-3.63,8.09,-2.07,27.74,-44.72,-7.45,16405
-2.47,16.90,-7.73,-0.03,1.82,1.43,27.29,-47.73,-11.39,16439
-14.41,39.16,-17.53,1.61,2.67,6.38,19.69,-53.27,-10.41,16473
-29.73,4.15,21.48,-6.05,-1.03,-1.89,17.01,-53.42,-14.82,16507
2.27,1.96,-19.79,-1.49,0.43,-1.14,17.41,-52.59,-18.49,16541
-7.01,6.56,-0.40,-0.90,-0.39,-1.04,15.95,-52.65,-20.62,16576
-10.27,10.16,-0.83,0.21,-0.09,0.45,15.04,-52.16,-21.60,16610
-0.37,11.68,-6.33,-0.71,-0.49,0.06,14.10,-51.72,-22.46,16644
8.28,17.90,-1.87,-0.52,-0.08,0.96,10.16,-51.75,-24.95,16678
-0.01,22.20,2.86,-0.70,-1.34,2.48,4.95,-51.13,-26.34,16712
0.93,3.21,-17.20,-0.68,-3.91,4.90,-6.33,-48.09,-27.17,16747
-29.07,-13.98,-16.26,-1.00,-8.72,2.40,-14.16,-44.64,-23.93,16781
1.24,-4.87,-5.39,2.46,-6.01,2.52,-20.13,-42.31,-15.27,16815
-17.18,-5.39,-9.27,2.60,-2.65,-0.25,-21.89,-40.40,-7.91,16849
-12.29,-2.59,8.29,3.12,-5.94,-1.38,-19.76,-41.11,0.03,16883
4.16,38.02,10.45,0.26,0.35,0.07,-15.27,-42.24,6.12,16917
-10.32,-0.37,23.26,-1.52,-1.62,-5.98,-14.47,-45.44,5.44,16952
-1.73,16.19,-8.38,0.27,0.31,-0.63,-11.36,-45.62,7.04,16986
-7.22,15.64,2.33,0.31,-0.49,0.97,-10.98,-45.45,8.01,17020
-10.36,10.43,-6.66,-0.73,-0.18,0.44,-9.85,-45.92,7.40,17054
-7.60,11.49,-4.93,-1.54,0.11,0.65,-9.09,-46.21,5.32,17088
-0.11,25.80,-5.39,-1.05,1.92,-1.92,-6.71,-46.46,2.84,17123
-5.42,25.45,-13.13,-4.96,3.21,-7.69,-1.34,-45.98,-3.52,17157
38.48,-39.20,-1.97,-5.81,7.10,-9.84,7.63,-43.47,-9.89,17191
35.52,-14.71,17.63,-1.99,3.26,1.21,6.09,-42.01,-8.74,17225
5.48,23.47,15.40,-2.09,9.61,3.18,-1.94,-43.70,-8.27,17259
-36.48,-1.42,-3.34,-1.89,0.31,0.61,-7.03,-46.11,-7.70,17293
13.76,-2.92,9.15,2.17,2.55,1.69,-8.74,-48.58,-11.11,17328
-36.39,34.68,-39.16,1.80,4.63,-1.17,-16.14,-49.15,-11.49,17362
-9.80,-21.52,3.62,-3.16,1.33,-3.74,-10.08,-49.81,-15.43,17396
-26.75,-1.44,6.88,-0.63,0.52,-0.71,-12.47,-48.89,-16.27,17430
-8.81,5.20,-2.25,-1.05,-0.15,-1.24,-12.39,-48.82,-18.02,17464
-1.64,7.76,-4.93,-0.67,-0.75,-0.81,-12.77,-48.47,-18.99,17499
4.00,11.64,-8.17,-0.56,-0.08,0.64,-14.48,-47.60,-20.68,17533
5.54,20.79,-5.38,0.14,-0.53,1.62,-19.48,-43.35,-22.93,17567
8.55,28.25,-10.51,2.12,-3.17,2.97,-24.29,-38.73,-21.16,17601
0.95,-11.87,8.12,-2.49,-6.32,5.08,-29.52,-30.02,-18.91,17635
-2.71,-12.65,-28.75,3.88,-7.86,7.71,-34.54,-15.46,-8.67,17669
-24.28,-2.70,-12.26,4.27,1.67,4.33,-36.14,-5.07,-9.68,17704
-39.20,-10.74,-5.81,2.72,-3.19,1.31,-35.62,1.15,-7.57,17738
-38.86,4.58,-22.36,10.46,-6.29,-3.62,-34.51,3.60,-1.42,17772
-36.15,39.16,2.02,-0.35,5.06,-0.96,-36.09,2.91,-2.28,17806
11.13,13.94,20.17,-0.64,-3.12,-1.78,-35.18,-2.51,1.52,17840
1.71,21.27,-7.99,-0.45,0.24,0.46,-34.48,-4.37,2.32,17875
-12.58,12.87,6.44,-1.41,-0.05,-0.12,-33.82,-4.71,2.12,17909
-7.40,-6.61,-6.65,-2.08,-0.04,-2.62,-32.33,-9.16,3.01,17943
-2.33,6.24,-4.58,0.43,-0.72,-0.38,-31.09,-10.25,4.21,17977
-1.59,8.89,-5.86,0.39,-0.78,-0.75,-29.07,-9.16,5.19,18011
-0.93,9.62,-7.34,0.23,-0.30,1.06,-28.47,-8.54,6.18,18045
-3.66,12.14,-6.07,-0.33,0.11,1.86,-27.95,-5.69,5.93,18080
-12.16,11.66,-3.87,-2.11,0.63,1.23,-28.38,-4.49,4.43,18114
14.15,10.32,-32.67,-0.87,3.97,-4.63,-29.58,-6.01,-0.32,18148
8.88,-4.99,-11.77,-2.21,7.75,-8.16,-33.47,-9.78,-10.48,18182
15.73,0.53,5.78,-0.59,6.87,-1.91,-35.52,-10.36,-22.33,18216
1.46,8.51,7.59,-1.08,9.59,-0.13,-34.23,-7.21,-35.00,18250
-21.70,-1.54,2.21,-1.10,3.28,-0.12,-31.64,-4.50,-43.77,18285
-25.71,39.16,-28.04,-0.23,-1.38,3.20,-34.81,-2.00,-45.78,18319
15.69,8.31,-5.05,-1.66,-1.46,-1.99,-35.66,-3.74,-46.43,18353
-9.17,2.69,-6.43,-0.53,0.71,-1.06,-35.71,-1.59,-48.66,18387
-5.27,6.83,1.42,-1.01,0.41,0.31,-35.30,1.90,-51.18,18421
-12.82,5.34,-2.57,-0.60,-0.01,0.98,-34.67,5.07,-52.86,18456
-7.18,6.06,-6.42,-0.85,-0.24,-0.19,-35.62,8.07,-53.26,18490
-5.26,4.71,-10.20,-0.45,-0.18,-0.33,-35.52,9.60,-53.03,18524
-3.71,6.53,-5.72,-0.30,0.10,-0.58,-35.84,10.84,-54.12,18558
-1.42,8.86,-4.34,-0.35,-0.09,-0.76,-36.10,11.41,-54.30,18592
-1.91,9.68,-3.15,-0.38,0.07,-0.27,-36.42,11.94,-54.25,18626
-2.43,8.93,-1.15,-0.24,-0.12,0.11,-35.94,13.43,-54.47,18661
-1.17,8.87,-0.84,-0.64,-0.21,0.21,-36.16,16.02,-54.47,18695
-2.32,9.86,-3.26,-0.54,0.01,0.18,-36.23,18.04,-53.54,18729
-2.16,7.74,-6.93,-1.11,0.62,-0.49,-35.79,20.70,-55.06,18763
-3.88,7.93,-3.82,-0.69,0.79,-0.70,-35.59,22.46,-55.35,18797
-4.47,7.84,-1.04,-0.76,1.07,-0.88,-34.61,23.79,-56.27,18832
-2.03,8.60,-1.93,-1.15,1.19,-1.07,-33.43,25.80,-56.71,18866
-9.27,6.21,-8.23,-1.60,1.94,-2.00,-32.14,28.14,-57.04,18900
-1.03,7.63,-6.31,-0.36,0.52,-0.76,-32.51,29.01,-57.97,18934
-3.82,9.77,-2.01,-0.52,0.60,-0.32,-31.77,30.90,-57.31,18968
-3.15,9.03,-2.88,-0.19,0.02,0.33,-31.12,32.89,-57.29,19002
-0.79,12.77,-0.17,0.34,-0.11,2.00,-28.03,35.56,-57.83,19037
6.67,14.15,-2.45,0.60,-2.15,2.18,-25.84,38.26,-57.40,19071
5.61,18.44,-11.81,0.73,-3.12,2.15,-24.79,40.56,-54.52,19105
-12.75,-8.79,-22.99,0.87,-6.38,2.83,-23.71,42.75,-52.72,19139
-17.43,-5.95,-9.29,5.14,-10.41,2.10,-29.26,40.32,-54.72,19173
-1.55,6.85,13.87,5.18,-9.51,0.45,-42.17,34.80,-52.54,19208
-14.51,22.44,22.35,0.35,-1.16,0.53,-47.92,33.50,-51.32,19242
-23.34,-1.78,2.84,-2.14,-0.52,-6.65,-48.87,31.51,-50.28,19276
0.82,-8.09,-5.21,-1.67,1.14,-4.32,-54.98,25.24,-50.64,19310
-6.81,6.59,0.99,1.72,-1.46,0.09,-56.90,20.94,-51.52,19344
-12.66,8.31,-5.98,1.23,-1.48,-0.19,-58.87,16.43,-49.50,19378
-7.97,14.78,-1.66,0.82,-0.85,0.10,-59.31,12.76,-47.97,19413
6.14,39.07,-15.64,0.20,0.06,1.45,-58.10,12.01,-46.08,19447
11.28,31.22,-12.03,-1.54,1.04,-4.94,-55.74,6.23,-47.71,19481
14.80,-10.43,-31.06,-3.47,4.24,-5.22,-53.84,-0.91,-51.93,19515
26.20,-6.50,-0.28,-5.40,8.05,-0.61,-42.36,3.19,-66.16,19549
-5.31,-0.71,3.80,-3.71,7.19,3.53,-29.83,16.33,-74.88,19583
-28.34,20.49,-5.27,3.26,3.50,-5.87,-18.84,22.11,-79.41,19618
-5.45,35.54,-39.16,9.46,-0.99,-5.27,-6.94,21.97,-84.01,19652
23.73,34.52,-4.36,6.22,-3.40,-0.52,-19.47,28.78,-80.59,19686
-4.86,10.83,-6.20,0.24,0.01,-0.08,-18.56,28.14,-81.10,19720
9.80,1.69,-1.11,-2.11,-1.63,-1.86,-22.20,30.81,-78.54,19754
-7.03,10.15,-2.75,-0.20,0.36,1.01,-20.46,32.26,-78.09,19789
-11.24,8.56,0.74,-0.66,-0.14,0.40,-18.36,34.83,-77.39,19823
-6.13,1.60,-4.14,-0.98,-0.08,-0.77,-19.13,36.44,-75.55,19857
-4.23,6.97,-8.38,0.17,-0.69,1.10,-18.68,37.64,-75.45,19891
-2.04,12.42,-0.22,0.18,-0.43,0.53,-19.54,37.08,-75.08,19925
-3.52,8.04,-4.49,-0.71,-0.05,-1.20,-20.17,37.71,-74.82,19959
-2.06,9.35,-5.14,-0.50,-0.02,-0.54,-21.75,39.26,-72.92,19994
-3.13,8.81,-2.23,-0.26,0.16,-0.32,-22.16,39.04,-72.46,20028
-3.21,9.79,-0.70,-0.63,0.15,-0.47,-22.03,39.99,-71.59,20062
-3.74,8.06,-3.01,-0.97,0.39,-0.44,-21.47,41.67,-70.13,20096
-3.24,9.24,-2.15,-0.94,0.53,-0.28,-21.00,43.91,-68.50,20130
-4.61,7.73,-2.86,-1.22,0.88,-0.45,-19.67,46.04,-66.87,20165
-7.05,5.58,-3.69,-1.21,0.89,-0.62,-18.49,47.65,-64.67,20199
-7.33,5.19,-4.53,-0.63,0.51,-0.61,-18.14,48.55,-63.77,20233
-4.21,8.73,-1.44,0.01,-0.16,0.02,-18.68,48.90,-63.52,20267
-1.35,12.41,-2.37,-0.18,-0.31,1.30,-17.41,49.58,-62.92,20301
3.68,15.92,-1.79,0.76,-0.07,2.63,-12.57,50.16,-62.73,20335
8.76,18.86,-0.03,-0.24,-1.46,4.50,-4.71,49.88,-63.10,20370
-6.75,-4.04,-28.72,2.01,-5.73,4.97,-2.15,47.25,-64.83,20404
-39.20,-5.55,-16.55,4.85,-10.05,0.82,-11.94,40.15,-70.84,20438
-11.69,-3.01,-1.90,3.63,-6.75,0.05,-29.71,33.41,-70.97,20472
3.80,5.48,3.97,1.92,-3.27,-0.99,-38.76,27.49,-70.55,20506
-39.20,-28.15,-21.75,-0.43,1.74,-2.76,-41.89,21.27,-72.05,20541
37.62,38.54,-20.36,0.67,2.44,6.54,-43.20,26.19,-73.00,20575
-28.44,-1.00,18.93,-1.34,-0.69,-5.37,-45.06,20.86,-72.83,20609
-2.66,12.54,-8.06,1.64,-0.12,0.19,-48.67,15.59,-74.42,20643
-8.08,13.43,2.30,0.12,-0.59,0.56,-50.38,13.94,-74.04,20677
-12.06,10.05,-3.26,-1.82,-0.72,0.22,-51.18,15.30,-72.51,20711
-6.33,9.52,-3.82,-0.63,0.56,-1.15,-50.80,15.07,-71.00,20746
-2.92,27.10,-18.24,0.39,0.77,-1.29,-49.94,10.74,-72.26,20780
-5.67,16.32,-7.38,-4.85,-0.69,-5.26,-50.38,7.35,-68.99,20814
21.03,8.27,-38.59,3.03,3.34,-6.15,-49.46,-2.38,-71.46,20848
-0.67,-15.26,9.87,-2.23,10.22,-4.44,-34.45,2.38,-80.81,20882
12.47,10.61,5.06,-3.47,7.73,1.48,-12.39,10.84,-87.20,20916
-14.33,-0.53,-1.24,-4.51,5.73,-0.23,6.74,18.91,-86.67,20951
-21.93,-14.65,16.09,-1.74,-2.68,-8.77,8.24,24.28,-86.00,20985
-34.06,21.74,-8.44,-2.19,0.98,0.15,13.93,28.25,-85.84,21019
-20.46,-5.66,14.62,-3.13,-2.37,-5.85,18.37,28.59,-85.02,21053
-6.22,7.03,-4.24,-1.41,-0.60,-1.46,12.80,28.53,-85.84,21087
-8.75,9.22,-2.79,-0.43,-0.73,-0.12,11.20,29.79,-85.02,21122
-2.85,1.26,-6.35,-0.87,-0.63,-0.76,9.79,31.26,-85.30,21156
-4.26,7.39,-4.48,-0.79,-0.04,-0.49,8.65,32.83,-83.66,21190
-6.50,8.60,0.39,-0.76,-0.18,-1.18,8.49,34.29,-83.19,21224
-3.82,-2.30,-3.35,-0.34,-0.39,-0.41,7.50,36.00,-83.05,21258
-7.69,16.90,-6.82,0.03,-0.36,1.55,9.34,33.09,-84.60,21292
12.99,30.44,-14.08,1.89,-2.17,1.98,7.88,29.41,-86.52,21327
15.40,31.68,-23.98,2.72,-1.88,2.17,5.64,20.04,-89.43,21361
-24.74,-39.20,-11.33,-1.21,-6.85,5.83,-5.69,21.16,-90.06,21395
7.15,13.69,7.06,3.15,-0.06,5.64,-16.44,4.38,-93.95,21429
-39.20,-0.81,-4.73,3.95,-1.81,-0.37,-12.28,-12.13,-95.64,21463
29.11,-0.74,-16.74,0.28,-9.83,0.73,-30.25,-25.91,-88.72,21498
-34.27,9.29,-32.52,-4.00,2.39,-11.99,-28.11,-23.90,-89.87,21532
1.08,-14.69,5.25,-2.58,0.50,-3.97,-30.23,-25.94,-89.36,21566
-16.66,5.26,15.30,-1.31,-0.12,-0.15,-29.28,-25.23,-90.35,21600
-20.90,4.41,-1.66,-0.77,0.69,-0.27,-27.70,-23.94,-91.48,21634
-11.52,6.10,-3.85,-0.03,-0.28,-0.08,-27.95,-24.01,-90.59,21668
-7.61,12.06,-4.96,-0.15,-0.23,0.13,-28.05,-23.84,-91.55,21703
-0.39,22.09,-10.18,0.40,-0.31,-0.23,-28.22,-24.63,-91.14,21737
0.61,31.65,-26.98,-0.19,1.41,-3.89,-24.12,-28.71,-90.57,21771
-2.79,-11.24,-32.62,-5.69,-1.97,-5.93,-22.27,-23.97,-89.24,21805
32.20,9.68,7.32,-2.38,4.43,-2.33,-9.31,-25.58,-92.12,21839
22.50,2.39,5.25,-1.87,8.93,2.10,11.28,-21.56,-92.31,21874
5.63,17.73,0.09,-3.16,11.46,3.58,42.12,-21.57,-80.24,21908
-39.20,21.32,24.40,4.23,-0.52,-7.10,55.77,-17.86,-74.85,21942
26.33,-6.14,-39.16,1.95,3.94,3.60,57.66,-33.12,-69.16,21976
12.78,3.19,3.74,-2.51,-3.34,-2.85,57.04,-20.87,-74.82,22010
-2.48,6.99,-14.38,-0.84,0.92,1.39,58.97,-21.54,-73.63,22044
-2.23,11.88,1.79,-1.51,0.80,0.69,60.38,-25.29,-71.19,22079
-1.51,17.60,6.22,-2.25,0.93,1.12,61.74,-27.54,-69.98,22113
2.96,17.04,3.27,-1.91,-0.04,1.49,60.96,-30.17,-70.91,22147
1.06,11.10,-17.75,-1.51,-0.73,3.51,52.66,-38.61,-75.80,22181
-29.77,-8.96,-34.92,2.83,-7.24,0.39,38.57,-45.29,-82.87,22215
-4.80,-11.74,-6.68,2.55,-5.60,2.76,19.20,-54.85,-83.95,22250
-17.89,-7.12,-5.79,2.82,-3.08,1.56,5.28,-63.33,-78.92,22284
-13.36,3.55,4.88,3.06,-4.80,-0.38,-3.03,-74.50,-69.19,22318
-21.20,39.16,38.02,2.12,-0.65,0.41,-2.44,-84.07,-59.66,22352
-22.60,20.07,-18.25,1.38,1.59,-9.24,8.29,-81.32,-64.32,22386
-15.31,6.12,-16.09,-0.76,1.75,-3.43,16.44,-79.16,-63.93,22420
-9.71,13.79,0.98,0.32,-1.41,-1.07,19.88,-78.18,-63.77,22455
-10.46,11.53,-4.34,-0.11,-0.64,-0.43,21.18,-76.18,-64.67,22489
1.17,23.18,-7.92,0.82,-0.58,-0.15,21.72,-74.12,-64.43,22523
12.12,37.52,-23.28,0.70,1.81,0.73,21.60,-73.11,-61.09,22557
17.36,12.90,8.12,-6.37,-3.30,-7.26,28.84,-60.32,-68.12,22591
39.16,24.73,39.20,-4.30,2.69,-1.02,34.07,-53.39,-65.70,22625
31.04,-2.76,3.97,-3.46,7.26,1.64,44.83,-53.03,-56.24,22660
-3.53,7.55,-2.89,-3.87,7.32,4.47,48.73,-61.44,-45.70,22694
-39.20,-11.55,0.79,2.46,0.58,-5.62,48.41,-69.73,-39.24,22728
39.16,26.93,-35.45,-1.38,3.24,16.34,26.64,-83.13,-38.23,22762
35.04,23.39,-5.79,4.91,-5.53,1.41,32.90,-78.00,-41.48,22796
-3.16,6.46,-7.19,-0.17,-0.14,0.53,29.74,-79.01,-40.76,22831
-9.22,15.07,11.21,-0.13,-0.37,1.80,23.53,-79.82,-40.19,22865
-14.94,9.58,3.42,-0.85,-0.73,1.00,17.61,-80.24,-42.81,22899
-11.30,1.65,-5.26,-0.76,-2.49,0.22,14.28,-78.79,-47.14,22933
-2.09,9.15,-2.56,0.62,-2.33,1.51,7.95,-79.87,-46.84,22967
-9.33,8.41,-2.07,-1.22,0.37,-2.01,9.08,-78.84,-48.55,23001
3.12,8.76,-3.83,-2.16,-0.77,-1.83,12.13,-76.54,-53.87,23036
1.02,8.15,-8.13,-1.01,0.32,-0.85,15.30,-73.63,-57.28,23070
0.42,11.43,-1.25,-0.30,0.38,-0.16,15.30,-73.06,-58.23,23104
-1.69,9.25,-1.89,-1.04,0.84,-0.64,15.95,-71.81,-59.85,23138
-0.96,10.33,-1.57,-1.06,1.30,-0.79,17.63,-69.28,-63.02,23172
-1.71,9.10,-4.47,-1.39,1.49,-0.72,19.53,-66.21,-64.91,23207
-3.25,10.05,-3.33,-1.24,1.41,-0.28,20.40,-63.46,-67.71,23241
-4.02,7.25,-1.64,-1.61,1.71,-0.53,22.33,-60.44,-70.70,23275
-4.83,10.57,-3.80,-1.65,1.68,-0.50,24.20,-56.45,-73.21,23309
-1.30,8.06,-4.85,-1.70,1.46,-0.59,27.23,-50.66,-75.31,23343
-3.34,7.11,-3.58,-1.09,1.33,0.02,28.41,-48.28,-76.50,23377
-10.02,4.57,-6.21,-0.85,1.07,-0.13,28.98,-45.45,-76.75,23412
-12.05,4.90,-3.94,0.12,0.31,0.47,28.50,-45.26,-77.16,23446
-7.22,10.92,-2.11,0.20,-0.11,1.09,26.88,-46.35,-77.19,23480
-3.85,14.76,-2.44,-0.38,-1.54,2.33,21.12,-47.35,-78.84,23514
18.94,19.37,-4.65,1.49,-2.47,3.31,12.63,-49.14,-78.24,23548
-9.66,4.15,-29.76,4.61,-3.90,-0.50,4.25,-55.16,-73.76,23583
-20.71,-7.97,-16.09,2.77,-11.17,1.32,-19.31,-59.31,-59.76,23617
7.77,6.01,-4.95,4.96,-9.53,-0.31,-30.75,-64.31,-38.42,23651
-6.43,-21.84,10.71,2.91,-3.10,-1.26,-28.12,-67.23,-26.91,23685
15.81,23.52,15.48,1.72,-3.75,1.07,-25.94,-67.42,-14.29,23719
12.28,23.65,-29.13,-1.13,1.43,0.04,-24.17,-67.68,-16.05,23753
1.75,-3.48,-6.13,-0.24,-1.53,-2.90,-12.57,-68.93,-16.54,23788
-10.47,13.15,-9.08,1.44,-0.19,2.03,-13.29,-66.59,-12.92,23822
-13.26,14.97,5.22,0.95,-0.38,1.78,-15.00,-63.01,-10.90,23856
-15.67,17.38,6.64,-1.09,-0.36,-0.32,-14.28,-59.59,-11.78,23890
0.19,37.62,-18.83,-0.41,2.36,-2.92,-12.36,-57.51,-12.98,23924
-7.57,15.79,-7.03,-4.80,2.17,-9.59,0.00,-56.68,-25.81,23958
23.21,13.77,32.42,-5.89,6.59,-6.43,12.06,-51.46,-28.08,23993
33.62,-3.71,12.25,-2.87,3.15,-1.13,15.92,-48.76,-30.23,24027
23.38,3.38,20.50,-2.17,2.73,3.24,12.61,-48.85,-29.82,24061
-8.51,18.04,7.03,-2.42,4.84,5.61,6.39,-50.44,-28.88,24095
-35.90,26.65,-4.43,1.11,5.81,1.48,3.79,-50.51,-30.80,24129
-7.62,-0.08,-39.16,3.68,4.20,5.69,0.58,-51.89,-26.63,24164
6.09,8.08,10.57,1.70,-1.50,0.07,-0.20,-49.74,-32.15,24198
-8.85,1.08,-2.77,0.15,-0.19,0.40,-1.68,-49.36,-32.84,24232
-9.07,12.05,-4.50,-1.05,-0.06,0.54,-3.83,-47.34,-35.75,24266
-4.50,14.02,1.90,-1.52,-0.07,0.33,-4.85,-45.91,-37.84,24300
-0.29,19.74,-0.47,-1.04,-0.49,0.11,-5.90,-44.49,-39.71,24334
4.19,18.53,-12.95,-0.05,-2.06,0.57,-8.78,-43.86,-40.68,24369
-5.28,-10.20,-1.68,-5.06,-5.07,2.49,-14.18,-39.54,-44.10,24403
-17.89,-18.90,-34.18,5.23,-7.15,3.95,-24.54,-36.14,-37.26,24437
3.67,2.12,-0.58,3.40,-0.98,3.67,-29.89,-32.05,-32.80,24471
-31.44,-16.05,-5.97,1.81,-2.12,1.10,-31.13,-29.25,-29.57,24505
-36.75,-18.76,-5.71,2.62,-4.80,-1.00,-31.45,-28.94,-19.96,24540
23.36,32.87,-13.52,-4.36,1.89,2.76,-32.37,-26.51,-16.59,24574
5.02,11.64,-0.06,1.17,-0.59,-3.40,-28.03,-31.44,-17.67,24608
-8.18,5.25,-7.20,0.65,-0.31,-0.20,-28.02,-30.81,-18.46,24642
-12.72,12.83,-2.03,0.19,-0.70,0.71,-29.58,-28.73,-16.68,24676
-8.73,15.60,2.39,-0.42,-0.91,-0.45,-30.90,-29.06,-15.77,24710
1.61,33.64,-17.71,2.45,-0.99,-3.01,-30.27,-31.38,-14.26,24745
13.00,28.34,-9.13,-8.60,-3.03,-8.20,-23.24,-38.80,-19.42,24779
18.99,-24.36,-39.16,14.41,0.41,-9.87,-14.48,-44.07,-16.81,24813
26.32,-3.60,-3.78,-3.29,7.41,-2.79,-14.13,-42.97,-29.61,24847
13.06,7.68,4.69,-3.53,8.67,1.40,-12.89,-39.11,-39.16,24881
4.14,5.69,1.22,-3.80,8.97,2.86,-11.87,-33.02,-47.22,24916
-39.20,17.90,10.01,6.53,0.23,-5.08,-9.47,-31.92,-50.41,24950
39.16,-33.72,-39.16,6.34,9.83,10.24,-7.38,-31.07,-50.70,24984
9.01,30.70,-3.79,5.50,-1.88,2.97,-13.43,-26.45,-53.38,25018
-16.44,25.49,6.88,-0.37,-0.68,0.97,-14.54,-22.86,-55.19,25052
-10.53,4.44,1.45,-2.38,-0.28,-0.81,-14.00,-18.97,-55.86,25086
-10.84,8.16,2.27,-0.89,-0.33,0.55,-13.58,-16.57,-55.60,25121
-5.83,8.19,-4.92,-0.52,-0.34,0.21,-13.58,-14.94,-54.94,25155
-2.57,3.36,-9.02,-0.48,-0.12,0.29,-13.02,-13.27,-54.52,25189
-8.09,6.35,-3.42,-0.58,0.12,0.40,-12.34,-12.64,-53.24,25223
-6.83,5.49,-4.18,-0.54,0.10,-0.14,-11.71,-12.29,-52.46,25257
-3.16,8.35,-5.55,0.15,-0.07,-0.09,-10.67,-12.73,-52.38,25291
-1.05,8.90,-4.08,-0.16,0.20,-0.07,-10.71,-13.10,-50.86,25326
-0.23,9.46,-3.55,-0.17,0.15,0.09,-9.63,-13.81,-50.83,25360
-0.11,9.85,-4.36,-0.40,0.18,0.21,-9.12,-14.44,-50.13,25394
-1.19,8.39,-4.80,-0.38,0.38,-0.13,-7.99,-15.17,-49.74,25428
1.16,9.97,-5.32,-0.35,0.39,0.04,-7.53,-16.85,-49.62,25462
2.15,8.49,-6.09,-0.79,0.84,-0.05,-7.34,-18.42,-50.10,25497
0.81,9.72,-5.64,-1.24,1.27,0.30,-5.71,-19.37,-51.36,25531
0.69,9.00,-3.06,-1.68,1.61,0.02,-5.55,-20.13,-53.10,25565
-1.16,8.05,-5.22,-1.79,2.48,-0.50,-3.24,-19.26,-56.24,25599
-0.51,7.77,-7.34,-1.87,2.65,-0.89,0.28,-18.30,-59.05,25633
-0.81,9.81,-9.32,-2.04,3.28,-1.70,4.25,-16.11,-60.98,25667
10.82,7.77,-11.56,-4.44,8.76,-3.48,15.68,-8.83,-60.29,25702
-19.43,18.91,-6.64,-0.73,10.51,-6.96,30.75,0.22,-52.29,25736
-11.62,2.48,-0.26,-4.20,4.60,-3.25,37.01,11.96,-41.27,25770
-6.74,6.64,-1.59,-2.50,4.69,-2.46,38.88,17.96,-34.54,25804
-5.22,4.94,-3.88,-2.29,3.61,-1.55,40.24,22.05,-27.99,25838
-4.78,6.89,-4.76,-1.07,2.30,-0.58,40.41,24.28,-22.64,25873
-1.98,6.98,-0.17,-0.60,1.78,0.31,41.90,24.13,-19.37,25907
-2.37,11.80,-1.26,-0.54,1.53,0.53,43.07,23.37,-17.90,25941
-4.09,11.31,-6.06,0.29,0.61,-0.04,43.35,23.40,-16.38,25975
-1.67,9.98,-4.84,-0.15,0.55,-0.69,42.84,24.61,-14.89,26009
-4.61,9.51,-2.68,0.05,0.73,0.14,42.84,24.28,-13.46,26043
-4.60,10.30,1.34,-0.03,0.35,-0.08,43.04,24.63,-12.70,26078
-4.00,9.04,-0.13,-0.18,0.33,-0.02,43.04,24.39,-12.01,26112
-4.29,8.57,-1.47,-0.40,0.60,0.07,43.00,23.88,-11.01,26146
-3.25,8.66,-4.15,-0.45,0.29,0.07,42.47,23.36,-8.92,26180
-1.49,8.32,-4.60,-0.53,0.19,0.04,42.68,22.98,-7.92,26214
0.73,12.24,-5.36,-0.61,0.19,0.16,42.53,22.04,-7.26,26249
-5.58,18.13,-3.40,-1.10,0.95,-0.30,41.07,21.35,-5.82,26283
3.36,13.18,-6.57,-1.01,0.24,-0.44,38.86,20.36,-3.22,26317
-4.72,15.54,-9.43,-3.10,0.19,-1.03,35.69,19.41,0.34,26351
-12.02,5.64,-6.39,-4.07,0.34,-0.75,33.24,17.71,4.03,26385
-7.41,2.57,-19.46,0.28,1.62,-1.52,28.79,18.01,7.03,26419
-4.37,2.84,-4.83,-1.12,3.88,-1.68,23.44,18.66,10.30,26454
-5.67,1.09,-4.55,-0.29,3.64,-0.60,17.82,18.69,11.98,26488
-6.65,0.34,-3.51,0.70,1.91,0.91,15.23,18.52,11.28,26522
-5.74,3.29,-1.92,1.78,0.56,2.08,15.84,18.46,9.28,26556
-4.69,6.27,-0.80,2.21,0.18,2.41,17.22,17.90,6.58,26590
1.97,10.34,11.01,1.91,-0.19,2.58,18.21,17.16,2.44,26625
-3.76,12.88,3.98,1.47,1.35,1.66,18.63,16.44,0.95,26659
-13.60,17.68,2.05,0.52,4.23,0.68,16.59,15.59,1.74,26693
-16.17,21.17,4.06,-0.27,5.39,-0.07,13.56,15.10,3.42,26727
-9.88,15.06,-2.40,-0.62,2.09,-2.05,8.84,14.75,6.49,26761
0.67,0.60,-4.36,-1.06,-0.26,-1.84,7.64,14.34,7.85,26795
-3.01,10.80,-2.25,0.70,-0.59,0.11,7.28,14.59,6.55,26830
-4.16,11.48,2.48,0.10,-0.34,-0.35,7.89,14.97,6.39,26864
-2.97,9.97,-0.20,-0.04,-0.35,-0.42,7.79,16.11,5.95,26898
-3.67,9.03,-4.07,-0.11,-0.55,-0.70,7.34,16.40,5.28,26932
-4.45,7.65,-5.82,-0.01,-0.36,-0.76,6.27,17.11,4.25,26966
-6.23,5.45,-3.88,0.16,-0.27,-0.36,5.74,17.99,4.06,27000
-10.17,5.95,-3.44,-0.03,-0.01,0.02,5.98,18.09,3.20,27035
-10.06,1.44,-7.92,-0.08,-0.22,-0.28,5.79,17.96,3.22,27069
-4.94,9.20,-6.79,0.92,-1.38,0.76,7.13,17.01,3.04,27103
-9.45,15.38,-4.80,0.59,-1.02,0.63,9.22,16.30,1.94,27137
-1.57,9.98,-27.70,4.23,-2.45,-0.86,12.03,17.49,-1.72,27171
1.92,22.34,-8.95,-2.33,-4.91,-1.09,16.50,18.31,-3.87,27206
-15.17,-4.98,-20.90,2.54,-3.74,-3.93,16.60,19.85,-6.84,27240
8.37,-31.64,6.74,-4.51,9.51,-5.36,13.14,20.24,0.44,27274
10.85,-2.18,0.31,-3.71,8.71,-0.06,5.77,19.00,5.70,27308
-7.95,14.05,1.02,-3.59,6.72,3.28,3.16,15.62,7.54,27342
-24.52,-2.60,-7.90,-5.46,0.47,-0.88,-0.60,15.23,7.88,27376
32.13,18.15,-36.85,-2.48,1.39,13.17,5.73,14.72,9.50,27411
5.33,14.07,3.95,0.60,-0.91,-0.26,5.07,14.81,10.07,27445
-5.17,11.65,-2.41,-1.26,-0.71,2.01,7.98,12.61,12.72,27479
0.36,6.11,-3.11,-0.51,-1.00,1.96,10.33,10.63,14.06,27513
-12.55,3.93,-5.77,-0.15,-0.30,1.64,12.38,8.68,15.38,27547
-5.99,4.63,-2.32,-0.22,-0.92,-0.52,13.80,7.44,16.34,27582
-8.90,7.11,-6.06,-0.33,0.61,-1.58,13.21,7.29,16.75,27616
-2.28,10.11,-2.51,0.48,-0.03,-0.77,13.27,7.64,16.98,27650
0.16,10.52,-2.06,-0.02,-0.19,-0.82,12.55,8.07,16.62,27684
-0.73,11.22,-0.35,-0.02,-0.38,-0.34,12.79,7.07,17.07,27718
0.93,10.43,-3.45,-0.21,-0.03,-0.20,12.64,6.69,17.48,27752
0.13,11.37,-0.52,-0.26,-0.10,0.21,12.95,5.09,18.59,27787
-1.67,9.73,-2.42,-1.00,0.28,-0.37,12.85,3.79,18.90,27821
-0.65,11.10,-2.42,-1.09,1.18,-1.22,11.74,1.62,20.01,27855
14.27,5.56,-9.42,-3.00,5.19,-3.18,6.74,-1.07,22.55,27889
2.17,10.21,-14.61,-3.46,4.75,-1.62,-2.29,-8.16,23.12,27923
-0.16,8.12,-6.58,-1.11,1.42,-0.93,-5.99,-10.93,22.62,27958
-4.45,7.17,-5.62,-0.49,1.41,-0.98,-7.66,-12.31,21.35,27992
-7.57,9.16,0.70,-0.07,0.70,-0.12,-8.73,-14.03,21.48,28026
-7.12,7.67,-1.80,-0.05,0.58,0.23,-8.94,-14.54,20.51,28060
-6.24,9.79,0.28,0.31,0.39,0.93,-9.66,-14.98,19.73,28094
-3.46,11.88,-1.48,-0.26,0.06,1.87,-10.67,-15.04,20.05,28128
0.17,13.91,-1.78,-1.00,-0.49,2.85,-11.25,-15.17,19.86,28163
12.37,14.43,-11.08,0.10,-0.65,2.45,-11.30,-15.67,18.88,28197
-35.29,-5.98,-33.32,3.59,-6.49,-0.50,-6.88,-14.50,20.78,28231
-5.86,-4.27,-17.42,2.32,-9.20,0.46,3.57,-10.39,21.18,28265
-31.48,-39.12,-28.28,7.46,-9.02,1.12,17.00,-2.15,15.81,28299
33.68,28.68,16.90,8.03,-10.78,4.31,30.21,-1.14,4.41,28333
-16.59,36.15,-37.47,3.99,1.79,5.49,32.96,-4.52,7.37,28368
-10.47,14.68,-12.99,1.14,-1.81,1.13,34.99,-3.65,0.41,28402
-18.53,12.10,-0.83,-0.38,-1.14,0.25,36.67,-4.85,-1.62,28436
-11.87,34.36,-17.51,2.35,-2.18,-3.43,39.04,-0.22,-4.02,28470
20.19,38.29,-13.35,-7.91,-1.25,-6.66,37.24,9.57,-2.46,28504
7.28,-2.30,-39.16,17.69,-4.48,-14.20,28.71,24.35,-8.37,28539
29.97,11.54,-8.84,-0.39,6.15,-3.53,24.42,21.16,7.50,28573
25.50,-0.22,11.56,-3.44,5.22,1.92,22.00,16.82,15.20,28607
6.20,-0.93,4.67,-3.00,3.68,5.74,23.30,4.94,21.56,28641
-39.20,31.78,-39.16,0.99,6.63,5.41,21.31,-5.63,24.76,28675
-38.79,39.06,-34.08,-6.66,5.07,4.24,18.21,-14.00,26.25,28709
-37.80,13.81,5.90,-12.27,-9.91,-2.32,18.18,-13.07,25.71,28744
9.20,14.53,-9.27,-0.92,-1.26,0.52,20.53,-12.98,26.12,28778
-8.60,14.01,-3.10,-1.25,0.63,1.17,19.20,-16.52,26.86,28812
-18.82,2.76,-2.52,-2.07,0.76,-0.03,17.54,-20.87,26.28,28846
-15.78,-3.98,-10.46,-1.38,-0.62,-1.40,17.14,-22.46,25.49,28880
-10.48,4.73,-4.15,-0.67,-1.22,-0.76,19.22,-23.49,25.14,28915
-3.29,9.54,-0.93,0.35,-0.66,0.15,20.99,-23.75,25.05,28949
2.70,12.09,-0.81,0.40,-0.47,-0.03,22.14,-23.90,25.55,28983
8.35,18.09,-3.42,-0.23,-0.15,0.61,22.16,-24.52,25.74,29017
4.23,21.74,2.01,-1.42,0.41,1.57,20.96,-26.76,25.37,29051
-2.02,20.07,6.15,-2.28,-0.33,3.78,18.04,-31.19,23.40,29085
-8.20,-10.17,-28.18,0.99,-4.25,3.64,17.32,-34.26,21.24,29120
-38.88,-10.88,-26.06,4.34,-14.73,-1.37,29.16,-25.62,19.15,29154
15.54,0.50,0.54,-3.67,-7.82,3.13,38.63,-32.17,11.63,29188
-10.98,5.78,0.19,2.59,-1.06,-2.54,43.06,-25.43,14.73,29222
-39.20,-9.71,-11.41,3.28,0.48,-4.97,46.19,-21.92,17.57,29256
-10.25,27.31,24.60,-1.13,3.02,-3.30,48.39,-18.18,22.71,29291
25.30,0.75,-39.16,-1.41,6.10,6.40,43.04,-25.12,31.98,29325
29.42,-5.81,3.77,-3.02,-3.47,-4.27,51.21,-19.04,27.35,29359
-0.48,8.49,-11.77,0.31,-0.30,0.79,52.29,-18.31,28.75,29393
-10.28,27.10,18.04,-0.34,0.60,0.61,53.03,-20.13,29.61,29427
-5.13,5.02,-8.29,-0.74,0.46,0.32,51.93,-22.27,30.42,29461
-14.90,9.32,-5.12,-1.40,1.18,0.75,49.71,-24.71,32.01,29496
-16.65,5.17,-0.78,-3.64,1.98,-0.07,47.44,-29.51,31.76,29530
15.01,12.18,-11.93,-2.89,7.62,-5.68,39.52,-27.23,41.03,29564
16.77,3.87,-14.97,-2.85,9.02,-8.06,22.92,-22.32,48.60,29598
13.32,-1.02,4.94,0.25,-0.43,-0.47,17.36,-19.58,50.50,29632
17.26,16.72,18.67,0.59,-1.66,2.00,20.80,-19.07,51.74,29666
19.54,5.69,33.26,-3.88,-2.82,1.37,20.94,-25.10,51.58,29701
-33.68,27.03,-39.16,-3.68,3.37,0.25,14.51,-35.02,51.64,29735
3.63,-16.69,1.60,-3.58,-4.14,-2.36,18.34,-37.62,49.25,29769
-12.13,18.09,-4.72,0.83,1.51,3.21,15.17,-39.07,50.32,29803
-5.52,18.54,9.57,-0.30,-0.22,1.81,9.16,-42.40,51.52,29837
0.89,17.22,4.86,-1.66,-0.36,0.23,6.28,-45.82,49.65,29872
7.70,13.75,-8.16,-2.52,-0.47,-0.39,3.76,-49.82,46.21,29906
-1.76,21.66,-25.03,-5.04,0.55,0.08,-1.11,-55.80,40.44,29940
-6.88,13.13,-25.06,-3.01,4.99,-0.29,-11.21,-58.75,36.69,29974
-3.18,-5.16,-13.63,-1.01,1.20,0.62,-20.80,-60.49,31.29,30008
-9.13,-6.88,-11.76,1.95,-0.93,2.36,-26.78,-53.62,35.74,30042
-4.88,-1.13,-7.81,4.53,-3.63,4.15,-29.33,-40.57,47.56,30077
-4.58,3.60,-5.96,6.08,-4.49,4.35,-25.18,-18.36,57.28,30111
-10.35,10.65,-4.86,6.50,-5.74,3.49,-13.90,2.51,61.65,30145
5.30,21.01,4.89,4.10,-5.86,1.64,7.64,19.51,61.06,30179
-9.98,30.89,24.31,3.70,-3.40,-3.24,18.74,21.98,59.75,30213
-28.81,36.42,-30.36,0.55,3.56,-6.22,18.99,24.32,60.74,30248
7.85,5.01,1.50,0.71,-3.09,-0.93,21.35,28.08,59.12,30282
-14.97,8.50,-7.03,1.14,-1.64,0.28,25.55,33.00,56.37,30316
-9.92,7.59,-8.22,0.78,-2.85,-0.05,36.96,36.86,51.20,30350
-6.97,8.41,-6.45,0.25,-2.06,0.32,39.64,38.26,45.18,30384
-6.79,13.11,-8.39,-0.21,-0.93,0.08,41.58,39.83,41.38,30418
2.04,27.90,-13.22,0.76,-0.21,-0.37,41.17,43.54,36.25,30453
-7.00,15.25,-5.26,-2.73,-0.29,-5.13,32.77,46.46,35.36,30487
23.11,-18.09,-29.45,-2.72,4.28,-5.07,21.34,44.50,41.55,30521
16.62,-3.33,3.32,-5.07,9.67,-1.16,-7.97,37.64,48.44,30555
11.62,10.10,-4.20,-4.72,9.29,-0.30,-29.49,28.98,47.92,30589
-20.47,-16.23,-31.93,-4.03,8.58,-3.25,-54.47,18.25,34.86,30624
4.56,4.34,-3.65,-3.20,2.73,0.28,-61.96,6.72,32.89,30658
-2.49,28.56,-39.16,0.05,2.32,3.10,-65.71,15.86,26.70,30692
8.60,11.57,3.96,0.64,-1.61,0.13,-63.30,11.69,30.93,30726
-6.34,11.12,4.83,-0.47,0.62,0.29,-63.93,14.12,28.30,30760
-1.45,8.88,-2.64,-1.15,0.24,0.31,-64.13,15.40,27.16,30794
-9.62,12.58,3.07,-1.15,0.52,1.80,-64.02,19.80,24.52,30829
-8.74,10.71,-0.75,-2.82,-0.24,1.37,-62.63,20.84,25.04,30863
4.25,10.88,-6.34,-2.92,-0.36,2.06,-59.34,22.57,28.92,30897
-19.45,1.86,-24.86,2.77,-3.73,0.02,-55.98,25.88,30.97,30931
-12.20,-0.34,-33.10,5.65,-10.84,2.57,-38.35,33.38,41.16,30965
-13.72,-26.39,-18.71,8.06,-10.63,0.12,-8.67,49.77,37.05,31000
34.03,26.24,19.74,5.94,-7.91,4.94,15.07,60.30,20.10,31034
32.39,39.16,-16.53,2.37,1.87,7.29,27.40,60.08,16.28,31068
30.47,6.04,4.51,-1.19,-2.72,-1.70,19.80,61.77,18.09,31102
-3.29,19.72,-17.81,1.27,1.24,1.63,19.79,62.35,18.28,31136
-15.85,9.38,1.74,-0.79,0.44,0.10,21.44,61.33,19.15,31170
-16.99,4.84,-3.07,-0.44,-0.59,0.33,21.88,60.83,19.23,31205
-14.29,5.12,-5.12,-0.42,-1.20,-0.07,23.00,61.49,17.90,31239
-10.03,9.94,-7.41,-1.11,-1.02,-0.63,23.34,61.77,16.88,31273
0.50,13.47,-7.46,-0.75,0.19,-0.52,22.14,61.55,16.87,31307
6.97,28.11,-14.12,1.14,0.27,-0.42,18.50,64.37,12.91,31341
-5.42,12.17,-3.39,-7.02,-3.80,-7.70,3.65,63.08,18.25,31375
25.02,13.69,-24.01,1.16,-0.79,-7.47,-11.11,61.93,13.26,31410
15.76,-3.77,7.91,-0.70,6.20,-3.55,-27.10,57.38,11.46,31444
19.38,7.12,14.62,-3.06,8.15,1.60,-32.75,56.97,8.17,31478
-0.36,17.10,1.11,-5.06,11.64,2.35,-37.45,56.96,4.75,31512
-0.38,12.07,-18.13,-5.22,3.54,1.84,-45.05,55.33,1.70,31546
-5.45,6.13,-39.16,-1.70,0.46,-2.43,-42.75,56.53,3.80,31581
1.13,18.61,1.01,0.95,-1.39,0.41,-41.84,55.35,8.33,31615
-15.79,2.85,-1.82,-0.82,0.38,0.47,-40.91,56.12,7.95,31649
-5.42,11.54,-4.42,-1.19,-0.02,-0.12,-39.27,55.73,9.49,31683
6.28,16.42,-0.88,-1.69,0.06,0.86,-36.85,55.04,11.59,31717
17.67,17.04,2.62,-2.37,1.13,0.47,-34.80,53.42,13.80,31751
0.13,14.28,-3.15,-2.70,2.34,1.60,-31.22,51.68,17.22,31786
-14.79,-0.66,-35.18,0.14,0.50,1.28,-24.55,49.94,18.18,31820
4.47,-4.99,-21.36,1.17,-4.24,5.55,-16.49,50.19,17.83,31854
-13.75,-9.70,-16.36,5.31,-4.46,1.23,-5.29,55.58,8.74,31888
-11.78,-9.76,0.82,4.80,-4.40,-0.02,-1.40,60.58,-4.68,31922
38.61,-1.88,-14.27,-0.53,-10.85,5.28,4.02,64.13,-20.18,31957
-39.20,39.16,-39.16,10.38,8.19,-1.94,9.18,64.37,-34.14,31991
0.81,31.42,-19.37,4.79,-0.97,1.30,-1.26,66.56,-30.66,32025
-7.86,11.71,-12.56,0.59,-2.66,0.67,-3.70,70.87,-31.29,32059
-5.60,8.82,-11.42,-0.37,-1.68,0.85,-4.47,67.10,-31.82,32093
-1.79,29.63,-11.47,4.05,-0.19,-0.60,-7.00,65.00,-37.30,32127
-8.53,29.40,-36.36,1.96,1.71,-4.34,-15.73,59.24,-40.51,32162
-11.63,-13.51,-32.73,-1.38,-3.04,-8.60,-31.67,53.90,-25.10,32196
21.41,-15.73,2.14,-3.41,3.05,-7.27,-37.40,47.41,-19.58,32230
27.74,-6.84,12.24,-2.56,4.68,-0.99,-38.13,46.13,-24.67,32264
17.20,7.35,4.64,-3.36,6.84,3.16,-31.42,50.66,-27.13,32298
-8.82,12.41,-3.85,-3.75,6.26,3.07,-16.79,57.32,-26.07,32333
-39.20,-1.87,-35.44,6.16,1.54,-2.68,-18.62,57.95,-28.37,32367
-39.20,39.13,-28.99,-0.45,2.53,0.58,-12.51,61.55,-24.50,32401
-6.82,-1.29,17.88,0.54,-3.31,-3.10,-6.93,61.21,-21.22,32435
22.90,7.89,-3.95,-1.22,0.18,0.32,-4.24,60.06,-22.35,32469
-21.58,13.75,3.86,-3.14,2.49,0.50,-0.01,57.56,-16.41,32503
-16.71,-4.80,-8.75,-3.56,3.27,-1.32,-0.64,54.31,-7.22,32538
-17.11,5.05,-5.45,-0.38,0.27,0.21,0.94,52.18,-5.38,32572
-4.27,5.73,-4.41,-0.64,-0.99,-1.71,-0.01,51.26,-3.96,32606
-0.89,8.78,-5.82,-0.36,-0.39,-0.60,-2.10,50.16,-3.48,32640
-0.88,8.85,-3.77,-0.57,-0.48,-0.92,-3.08,49.90,-2.62,32674
1.18,8.58,-2.62,0.20,-0.37,-0.24,-3.17,49.39,-2.88,32708
2.54,12.78,-2.92,-0.30,-0.04,0.08,-1.80,48.64,-3.24,32743
9.63,13.64,-7.76,-1.17,1.56,1.24,-0.31,47.31,-0.99,32777
-1.64,13.99,1.44,-2.11,3.30,0.88,1.42,43.66,1.75,32811
1.31,6.75,-5.76,-3.24,7.86,-3.93,-5.51,39.48,5.76,32845
-6.30,1.30,-10.86,-1.94,2.05,-1.77,-11.58,35.09,6.90,32879
-2.89,9.14,1.06,0.09,-0.73,-0.93,-11.03,34.13,7.28,32914
-4.34,0.96,-6.55,-0.00,-0.30,-2.06,-12.16,32.52,6.43,32948
-2.70,11.26,-3.68,1.01,-0.94,1.08,-8.07,33.54,6.04,32982
3.56,14.03,-3.92,1.02,-0.82,2.28,-3.99,33.44,4.43,33016
-2.26,20.53,8.05,-0.04,-1.23,2.59,2.31,32.14,4.34,33050
-11.10,16.54,-5.68,-0.81,-7.05,3.04,10.70,27.95,2.63,33084
-29.17,5.63,-22.22,4.53,-13.47,2.75,19.56,25.72,-7.66,33119
14.66,-2.68,-0.96,0.19,-10.67,3.27,24.61,22.77,-26.76,33153
-31.79,-21.94,-30.03,7.38,-5.28,-1.53,21.35,19.29,-39.29,33187
23.66,17.91,16.26,5.22,-6.55,4.20,17.73,11.03,-49.69,33221
-39.20,27.87,-39.16,3.35,2.85,-4.16,21.32,3.43,-52.91,33255
10.37,8.20,-1.48,0.36,-1.99,-0.25,17.92,6.07,-54.66,33290
-4.52,17.28,-2.52,0.09,-0.34,0.31,18.04,3.30,-54.53,33324
-5.15,12.57,3.00,-1.01,0.49,-1.38,17.60,4.18,-53.90,33358
-3.01,9.84,-2.55,-1.14,0.39,-1.84,17.89,6.62,-52.98,33392
-2.32,10.40,-5.00,-1.34,0.02,-1.04,17.47,8.78,-52.78,33426
-0.45,8.93,-5.47,-0.84,-0.27,-0.49,16.71,9.91,-51.81,33460
-2.78,5.84,-8.27,-0.72,-0.47,0.04,15.80,11.28,-51.49,33495
-8.81,5.08,-3.62,-0.26,-1.61,-0.18,14.82,11.44,-51.61,33529
-3.88,6.27,-2.64,-0.04,-2.05,-0.76,11.93,11.65,-52.27,33563
-5.69,9.50,-7.16,0.25,-1.23,0.14,10.63,11.62,-52.24,33597
-9.57,6.64,-8.73,0.19,-0.50,0.22,9.91,11.05,-51.62,33631
-12.20,5.48,-12.27,-0.08,-0.68,0.43,9.84,11.15,-51.75,33666
-2.05,11.99,-13.76,-0.37,0.70,1.41,11.63,10.54,-50.06,33700
-13.27,33.50,-3.55,-0.01,0.09,-0.68,14.24,9.25,-48.92,33734
0.48,25.11,0.44,-1.30,0.32,-4.75,12.77,10.54,-47.02,33768
19.61,-36.17,9.84,-5.86,10.66,-4.70,16.63,15.24,-37.12,33802
21.26,-2.32,-1.10,-3.50,7.05,1.67,24.93,13.96,-28.88,33836
7.90,15.58,1.31,-3.10,10.48,1.64,32.87,9.66,-14.50,33871
-39.20,11.72,3.16,13.38,1.29,-3.34,33.56,11.30,-7.60,33905
38.64,39.15,-29.34,0.27,1.74,6.75,37.18,6.21,-7.26,33939
8.13,21.07,-12.71,3.24,-1.14,0.33,36.33,9.28,-7.19,33973
-10.15,8.08,-0.55,-0.96,-0.59,0.21,36.96,8.08,-5.70,34007
-12.02,15.28,3.32,-1.23,-0.59,0.42,38.38,6.17,-5.54,34041
-6.20,17.08,2.48,-0.89,-1.35,0.18,39.20,3.67,-6.09,34076
2.41,12.64,-21.85,3.62,-2.80,1.47,38.59,2.51,-9.25,34110
1.28,5.92,-36.97,2.70,-4.84,2.22,39.13,-2.75,-16.62,34144
-6.86,-22.48,-10.54,1.98,-12.11,2.87,36.63,-6.87,-30.23,34178
18.52,-4.35,-5.79,7.18,-8.64,1.73,32.36,-13.52,-38.23,34212
-27.46,5.27,3.59,4.32,-9.39,1.63,29.23,-21.34,-42.62,34247
0.92,5.75,32.07,-4.15,3.08,-1.31,27.49,-23.21,-43.25,34281
1.11,17.81,16.57,-4.57,7.07,-1.72,32.58,-15.07,-39.01,34315
-36.27,-28.32,-2.82,0.65,0.13,-9.37,34.71,-10.44,-36.95,34349
-14.57,13.58,-3.98,1.13,-0.21,0.47,32.81,-14.26,-35.79,34383
-16.60,13.57,-8.40,0.26,-1.11,-0.21,30.99,-15.26,-35.12,34417
-5.88,22.80,-12.03,0.70,-0.39,-1.32,29.93,-16.69,-33.76,34452
-16.73,21.13,-4.01,-0.48,0.00,-6.88,32.55,-12.96,-31.42,34486
11.10,-4.59,-14.92,-4.50,-2.41,-5.12,33.21,-2.91,-30.08,34520
21.37,9.91,11.87,-7.32,4.47,-2.04,35.11,2.46,-20.78,34554
19.70,4.29,-14.84,-1.64,2.53,-2.07,34.77,5.77,-14.05,34588
27.51,6.27,2.37,-1.03,-0.28,2.87,37.56,1.39,-12.82,34623
39.16,39.16,-21.63,28.44,0.23,4.51,38.94,-1.20,-10.93,34657
-13.39,4.70,-28.10,7.82,-1.28,4.94,40.92,-10.76,-9.63,34691
-19.57,27.31,2.79,0.21,-4.73,0.57,42.43,-13.80,-14.69,34725
-13.16,8.06,13.20,-1.92,-0.66,-3.71,43.20,-9.09,-16.72,34759
11.73,-14.22,5.54,-3.45,-0.61,-4.42,42.44,-2.05,-16.54,34793
-8.56,2.67,-10.28,2.29,-1.34,-1.54,42.93,1.27,-17.83,34828
-8.35,0.14,3.17,0.01,-2.48,-1.73,43.48,3.57,-21.97,34862
-5.96,-3.82,2.34,0.19,-1.53,-2.50,43.48,6.59,-24.47,34896
-15.22,-1.67,-6.40,0.94,-0.98,-1.57,45.29,8.86,-27.42,34930
-8.76,5.61,-2.97,-0.51,-0.96,-0.80,46.70,11.65,-30.42,34964
-14.26,9.42,-7.15,0.25,-0.20,-0.87,47.37,14.06,-30.91,34999
-11.16,11.99,-9.18,-0.63,0.40,-0.53,47.84,15.40,-31.07,35033
-9.17,10.07,-9.01,-1.09,0.71,-0.92,47.05,16.82,-28.91,35067
-12.03,6.23,-11.42,-0.93,0.85,-0.98,45.76,18.01,-27.26,35101
-10.63,4.22,-10.85,-0.31,0.44,-0.24,44.07,17.82,-24.39,35135
-12.35,5.44,-12.34,0.60,0.05,0.83,42.46,15.39,-23.27,35169
-11.08,8.72,-9.15,1.50,-0.50,2.27,41.17,12.15,-24.09,35204
-11.91,11.12,-6.55,1.93,-0.47,2.83,40.38,7.97,-24.17,35238
-8.90,11.04,1.22,0.94,0.32,3.26,40.78,5.16,-23.91,35272
-6.45,8.24,6.97,-0.63,1.63,2.82,42.36,1.84,-18.78,35306
-2.67,1.61,7.35,-1.81,2.32,2.67,43.23,-1.77,-12.86,35340
-10.14,-11.27,9.26,-2.86,2.29,2.59,43.29,-6.47,-5.92,35375
-7.94,-4.87,4.23,-1.05,2.47,2.83,40.81,-12.55,-0.15,35409
-7.50,0.69,-0.28,-0.78,2.61,2.41,38.69,-18.25,3.80,35443
-27.90,35.65,-33.70,2.90,6.01,3.58,34.68,-22.26,10.57,35477
13.84,-30.23,24.93,-9.98,-5.89,0.96,32.07,-24.76,6.39,35511
-12.29,20.49,-31.53,6.31,3.17,1.56,28.84,-22.07,12.15,35545
-6.29,5.56,-9.31,1.02,0.21,-0.50,26.95,-22.08,11.20,35580
-3.53,6.91,-8.51,0.11,0.35,-0.42,24.38,-21.38,11.30,35614
-4.93,6.93,-4.50,-0.73,0.44,-0.62,22.68,-20.52,10.51,35648
-3.12,6.19,-4.38,-0.73,0.69,-0.64,20.51,-19.16,10.00,35682
-2.23,8.90,-5.94,-0.62,1.09,-0.24,18.66,-17.90,9.44,35716
-3.32,8.32,-5.62,-0.97,1.16,-0.25,16.03,-16.47,8.93,35750
-5.83,6.84,-7.41,-0.65,1.28,-0.11,15.07,-14.45,8.54,35785
-3.90,7.66,-8.19,-0.27,1.07,0.31,14.94,-13.18,9.06,35819
-2.80,6.78,-7.18,-0.40,1.02,0.63,15.90,-11.58,11.36,35853
-2.28,6.50,-5.87,-1.12,0.77,0.29,15.83,-11.78,12.79,35887
-4.95,5.58,-6.82,-1.23,1.03,0.41,16.53,-13.07,14.94,35921
-6.34,4.51,-6.46,-2.01,1.34,0.13,16.24,-16.18,17.06,35956
-8.59,1.57,-6.70,-1.85,1.40,-0.37,15.19,-19.03,18.31,35990
-7.08,2.27,-6.62,-1.36,0.79,-0.23,13.33,-22.58,19.88,36024
-3.53,4.15,-5.03,-0.66,0.52,-0.28,12.17,-24.06,20.40,36058
-5.41,6.68,-6.81,0.16,0.41,-0.44,10.71,-25.53,21.31,36092
0.33,7.56,-5.93,-0.41,0.63,-0.47,8.65,-27.36,21.51,36126
0.59,8.46,-6.27,-1.15,1.07,-0.73,6.75,-29.00,21.09,36161
1.96,8.76,-7.94,-1.46,1.52,-0.91,3.08,-30.77,19.98,36195
3.32,8.74,-10.54,-1.66,2.36,-1.14,-2.41,-33.75,18.01,36229
-1.35,4.89,-11.81,-1.74,2.83,-1.31,-7.26,-35.44,13.77,36263
-1.85,6.73,-15.34,-0.44,3.35,-1.42,-11.71,-36.16,10.82,36297
-7.62,1.35,-8.76,-0.85,1.50,-1.38,-14.57,-35.97,7.83,36332
-5.46,7.18,-5.65,-0.68,0.99,-0.97,-15.97,-35.57,5.09,36366
-1.99,8.01,-6.00,-0.80,1.09,-1.17,-17.90,-35.21,3.45,36400
-2.78,9.86,-6.24,-1.10,1.46,-0.98,-18.93,-34.39,1.17,36434
0.95,11.74,-6.03,-1.56,2.02,-0.87,-21.32,-34.43,-0.60,36468
-1.47,7.31,-8.41,-1.89,2.90,-1.16,-23.47,-34.58,-5.07,36502
-0.13,7.10,-8.23,-1.77,3.04,-0.97,-25.72,-34.68,-7.99,36537
0.38,4.95,-10.86,-1.58,2.95,-0.97,-28.15,-35.41,-12.38,36571
-1.76,6.75,-9.48,-1.81,2.71,-1.13,-29.85,-36.39,-16.65,36605
-1.37,6.78,-11.63,-1.26,2.88,-1.22,-30.66,-36.86,-22.05,36639
-6.63,5.39,-7.48,-1.37,2.35,-1.30,-30.74,-37.20,-28.28,36673
-2.79,6.99,-7.36,-1.10,1.88,-0.99,-30.71,-37.18,-33.02,36708
-3.21,7.51,-7.11,-0.97,1.65,-0.93,-30.08,-37.12,-36.38,36742
-3.60,7.43,-6.75,-1.14,1.58,-1.00,-28.71,-36.23,-40.34,36776
-2.23,8.23,-6.86,-1.37,1.74,-1.10,-27.76,-35.65,-43.92,36810
-2.07,7.09,-7.55,-1.57,2.17,-1.27,-24.67,-34.00,-48.49,36844
-5.38,6.34,-7.37,-1.96,2.31,-1.21,-22.00,-32.32,-52.56,36878
-1.94,6.37,-8.60,-2.01,2.38,-1.01,-18.94,-30.30,-56.11,36913
-3.78,5.61,-4.68,-2.40,2.51,-1.37,-13.37,-27.52,-59.35,36947
-7.41,4.46,-5.16,-2.03,2.00,-1.26,-10.03,-24.96,-61.52,36981
-7.28,7.62,-6.44,-1.16,2.01,-0.97,-5.32,-23.50,-63.15,37015
-6.96,7.69,-6.02,-1.10,1.63,-0.71,-3.19,-20.56,-63.99,37049
-4.39,6.87,-5.01,-1.16,1.64,-0.85,-0.06,-18.90,-64.38,37083
-1.77,9.97,-7.04,-1.12,1.66,-1.05,3.68,-16.98,-64.97,37118
2.64,7.58,-7.52,-0.60,1.77,-0.19,6.27,-15.43,-64.09,37152
-0.23,13.23,-9.89,0.77,1.54,-0.05,8.70,-16.24,-63.61,37186
-3.97,8.84,-11.48,-1.57,1.24,-0.19,12.17,-15.57,-63.01,37220
-3.31,2.70,-11.65,-1.94,1.24,-1.59,14.48,-13.10,-63.08,37254
-2.10,6.55,-7.86,-1.06,2.87,-3.59,21.54,-9.66,-59.40,37289
-1.58,3.31,-7.51,-1.49,2.75,-1.69,27.10,-7.00,-55.57,37323
-0.74,3.18,-6.87,-1.59,3.02,-0.23,32.20,-6.30,-50.67,37357
-0.84,3.05,-5.53,-2.07,3.66,0.61,39.56,-7.15,-42.27,37391
4.01,31.33,-17.12,-1.42,6.62,4.22,45.40,-13.86,-32.04,37425
-7.39,4.07,-12.66,-1.22,4.64,-2.47,47.16,-10.07,-21.31,37459
-11.33,3.96,-12.93,-0.81,3.14,-1.13,48.04,-11.44,-14.16,37494
-3.87,4.52,-7.70,-0.29,1.93,0.48,46.97,-14.88,-11.33,37528
-7.53,5.58,-6.82,-0.69,2.22,-0.64,45.57,-18.08,-6.36,37562
-6.13,3.29,-6.58,-0.85,1.93,-0.79,44.07,-19.79,-3.36,37596
-6.30,5.91,-7.15,-0.28,1.68,-0.48,42.27,-22.03,-0.34,37630
-5.32,6.21,-5.96,-0.34,1.53,-0.41,40.91,-23.28,1.62,37665
-2.87,7.75,-6.60,-0.09,1.36,-0.10,38.91,-24.79,2.81,37699
-5.21,6.98,-4.48,-0.25,0.97,-0.13,37.72,-26.98,3.68,37733
-4.83,6.66,-4.90,-0.28,0.86,-0.20,36.89,-28.08,3.99,37767
-4.46,5.67,-6.04,-0.01,0.61,-0.01,36.44,-29.33,3.95,37801
-4.31,6.39,-6.09,0.37,0.32,0.11,34.99,-30.96,3.23,37835
-4.10,7.28,-5.45,0.32,0.33,0.07,34.32,-32.13,4.25,37870
-2.65,7.73,-4.94,-0.10,0.46,-0.02,33.65,-33.47,4.27,37904
-4.05,6.49,-5.34,0.03,0.36,-0.14,33.03,-34.93,3.36,37938
-3.25,7.06,-5.41,0.06,0.15,-0.18,32.78,-35.71,2.69,37972
-3.05,7.15,-5.03,0.08,0.11,-0.16,32.08,-36.57,3.22,38006
-3.07,7.66,-5.45,0.21,0.09,-0.11,31.58,-37.09,2.63,38041
-2.46,7.72,-4.79,0.10,0.21,0.03,30.82,-38.22,1.97,38075
-2.22,8.51,-5.13,-0.02,0.35,0.04,29.96,-39.16,1.39,38109
-1.70,8.18,-5.35,-0.09,0.40,0.09,28.71,-40.53,0.50,38143
-1.55,7.43,-5.48,-0.16,0.40,0.11,28.30,-40.95,0.03,38177
-2.51,7.16,-5.24,-0.22,0.46,0.05,27.30,-42.34,-1.18,38211
-3.68,6.98,-5.25,-0.18,0.41,0.03,26.22,-43.89,-2.13,38246
-3.17,8.57,-5.15,-0.24,0.32,0.03,25.08,-44.11,-2.84,38280
-2.65,8.17,-4.33,-0.57,0.33,0.04,24.66,-44.99,-4.38,38314
-3.01,7.97,-4.62,-0.32,0.21,0.04,23.28,-45.47,-5.70,38348
-3.19,6.95,-5.57,-0.06,0.14,0.10,22.92,-46.67,-6.91,38382
-3.10,7.29,-5.03,-0.07,-0.01,0.25,21.98,-46.64,-7.73,38416
-2.77,7.53,-4.86,-0.03,-0.04,0.15,21.31,-47.38,-8.61,38451
-2.75,7.60,-5.08,0.00,-0.02,0.02,21.24,-47.37,-9.03,38485
-3.00,7.76,-5.37,0.09,-0.11,-0.06,20.18,-47.40,-9.81,38519
-2.51,7.74,-4.91,0.12,-0.22,-0.09,20.05,-47.92,-10.64,38553
-1.52,8.16,-4.77,0.18,-0.28,0.00,19.28,-48.42,-11.53,38587
-2.11,7.90,-4.87,0.23,-0.19,0.10,18.96,-48.79,-11.91,38622
-2.47,8.41,-4.61,0.17,-0.13,0.26,18.40,-49.39,-12.53,38656
-2.46,8.13,-4.61,0.12,-0.14,0.33,17.41,-49.14,-12.42,38690
-2.98,8.06,-4.11,0.17,-0.24,0.47,16.38,-49.66,-14.07,38724
-4.19,8.00,-4.44,0.20,-0.38,0.49,15.95,-49.91,-14.32,38758
-3.77,8.15,-4.56,0.11,-0.61,0.66,13.90,-50.41,-15.43,38792
-2.90,7.31,-5.40,0.16,-0.77,0.68,12.67,-50.82,-16.56,38827
-2.35,7.85,-5.04,0.18,-0.85,0.49,10.48,-51.52,-17.17,38861
-2.01,7.56,-5.15,0.21,-0.86,0.31,10.04,-51.62,-17.57,38895
-1.49,8.04,-4.91,0.21,-0.89,0.23,9.15,-51.34,-18.40,38929
-1.95,7.93,-4.76,0.30,-0.92,0.33,7.76,-51.58,-18.96,38963
-1.78,8.50,-4.32,0.38,-1.01,0.56,6.66,-52.02,-18.68,38998
-1.70,8.83,-3.96,0.29,-0.92,0.69,4.95,-52.50,-20.26,39032
-0.84,8.82,-3.83,0.12,-0.86,0.70,3.14,-51.83,-19.79,39066
-1.08,8.49,-4.49,0.05,-0.87,0.60,0.69,-52.29,-21.37,39100
-0.60,8.23,-5.01,-0.05,-0.75,0.53,-1.01,-51.96,-22.05,39134
-0.35,8.06,-4.47,-0.17,-0.59,0.30,-2.69,-50.96,-22.55,39168
-0.87,7.87,-5.59,-0.38,0.00,-0.04,-4.31,-50.57,-24.48,39203
-1.28,7.93,-4.74,-0.51,0.29,-0.30,-5.16,-50.12,-26.57,39237
-1.23,7.58,-4.02,-0.58,0.36,-0.31,-6.21,-49.77,-27.76,39271
-0.84,8.00,-3.85,-0.65,0.59,-0.29,-6.78,-48.47,-30.15,39305
-0.86,8.54,-4.87,-0.67,0.62,-0.31,-7.79,-47.56,-32.61,39339
-1.39,7.66,-4.39,-0.51,0.67,-0.30,-8.65,-46.86,-33.98,39374
-3.59,7.95,-4.83,-0.22,0.70,-0.52,-8.67,-45.13,-36.03,39408
-2.00,8.07,-4.16,-0.38,0.68,-0.42,-9.40,-43.61,-37.18,39442
-2.44,8.74,-4.49,-0.23,0.70,-0.40,-10.07,-42.24,-39.51,39476
-1.88,8.43,-4.15,-0.26,0.62,-0.26,-10.57,-40.91,-40.95,39510
-1.26,9.20,-4.30,-0.22,0.59,-0.25,-11.12,-38.98,-42.11,39544
-2.26,8.22,-4.16,-0.15,0.55,-0.29,-11.14,-37.55,-43.00,39579
-1.97,8.20,-3.69,-0.02,0.41,-0.19,-11.82,-36.07,-43.99,39613
-1.45,8.32,-3.37,-0.08,0.43,-0.20,-12.45,-34.07,-45.35,39647
-2.60,7.84,-4.48,-0.02,0.43,-0.20,-12.50,-32.75,-45.67,39681
-2.27,8.15,-4.50,0.01,0.41,-0.16,-13.10,-30.37,-45.85,39715
-3.32,8.14,-4.96,1.95,0.06,-1.38,-13.05,-30.87,-45.35,39750
-3.99,9.17,-5.23,-0.65,-0.54,-0.69,-13.30,-30.28,-45.15,39784
-3.63,8.14,-4.67,0.10,-0.16,-0.41,-13.90,-29.19,-45.82,39818
-3.43,7.99,-4.58,-0.10,0.05,-0.26,-14.47,-27.64,-46.52,39852
-4.34,7.60,-4.49,0.17,0.36,0.09,-14.72,-25.50,-46.35,39886
-3.39,7.47,-5.16,0.01,0.59,0.24,-14.34,-24.51,-47.37,39920
-2.69,8.07,-4.30,-0.05,0.17,-0.05,-14.70,-23.47,-47.60,39955
-3.16,7.60,-3.95,0.53,0.27,0.07,-15.35,-21.94,-47.43,39989
-2.77,7.46,-5.48,0.31,0.75,-0.17,-14.79,-21.76,-47.21,40023
-2.56,7.74,-4.79,0.32,0.93,0.37,-13.33,-20.93,-48.77,40057
-2.94,7.09,-3.93,0.63,1.33,0.65,-12.66,-20.74,-48.29,40091
-0.40,7.20,-6.28,1.40,1.01,0.65,-11.41,-19.69,-48.71,40125
-1.36,6.09,-6.33,3.23,-0.57,0.52,-11.88,-21.37,-48.48,40160
-1.34,5.99,-5.33,4.36,0.17,0.24,-12.76,-23.79,-46.43,40194
-1.86,4.70,-8.54,4.21,0.58,0.41,-12.17,-26.44,-44.42,40228
-0.43,4.15,-9.45,3.20,0.90,0.42,-11.74,-28.44,-42.75,40262
-0.43,2.83,-9.78,1.47,1.23,0.23,-10.90,-29.92,-42.68,40296
-1.41,1.71,-9.16,1.11,0.58,0.04,-10.27,-29.98,-43.17,40331
-0.95,-0.43,-7.47,0.95,0.64,0.32,-10.16,-29.48,-42.59,40365
-1.81,1.04,-9.13,2.30,-1.28,-0.72,-10.01,-30.71,-41.30,40399
-0.27,1.94,-10.94,1.15,-0.94,-0.98,-10.54,-32.49,-39.90,40433
-1.66,0.31,-9.10,0.86,-1.45,-0.78,-10.39,-32.97,-39.23,40467
-2.02,0.46,-8.94,1.20,0.09,0.01,-10.36,-33.05,-38.32,40501
-1.49,-0.81,-9.41,0.89,0.71,0.12,-10.17,-33.22,-38.91,40536
-0.38,-0.23,-11.37,0.26,0.46,0.35,-10.14,-33.06,-38.76,40570
-2.47,-5.28,-30.37,-7.88,-0.64,-0.39,-10.86,-27.92,-43.03,40604
11.97,-34.34,17.38,-39.60,-5.65,-0.55,-11.93,9.25,-42.90,40638
2.32,22.35,-16.49,13.75,1.27,-1.05,-13.59,6.14,-45.47,40672
-2.01,9.07,-0.65,0.64,0.64,-0.62,-14.44,7.48,-45.02,40707
-1.33,9.66,-3.75,-0.64,0.09,-0.23,-14.43,7.86,-45.43,40741
-0.37,7.88,-0.54,1.17,-0.59,0.48,-15.10,8.65,-44.69,40775
-1.11,8.04,0.13,-0.91,-0.06,0.25,-15.52,9.13,-44.86,40809
-2.33,9.18,-1.82,-0.31,-0.05,0.03,-16.02,10.39,-44.18,40843
-3.66,9.64,-2.85,0.69,-0.00,-0.27,-16.37,10.73,-43.92,40877
-1.76,10.14,-3.09,0.13,-0.07,0.09,-16.87,11.31,-44.48,40912
-1.58,8.22,-0.80,-0.23,0.02,0.09,-17.09,12.35,-44.02,40946
-0.57,10.72,-2.68,0.69,0.30,0.28,-17.25,13.43,-43.32,40980
-0.81,8.42,-1.58,-0.15,-0.15,-0.29,-17.51,14.24,-43.89,41014
-4.78,10.24,-4.07,0.95,-0.38,-1.00,-18.53,13.69,-43.04,41048
-2.08,8.98,-1.88,0.11,-0.20,-0.35,-19.50,14.59,-43.16,41083
-2.05,9.91,-1.82,-0.02,-0.01,-0.27,-19.50,14.67,-42.75,41117
-2.09,9.50,-2.40,-0.04,0.16,0.16,-19.76,16.05,-43.29,41151
-2.34,8.67,-3.77,0.59,0.00,0.21,-19.63,16.12,-43.25,41185
-4.11,16.06,-7.51,-3.12,-0.24,0.25,-19.63,20.17,-40.72,41219
-2.69,8.77,-0.44,0.21,0.07,0.03,-19.63,20.77,-40.50,41253
-3.18,8.45,0.10,0.02,0.31,-0.60,-19.76,21.38,-41.14,41288
-2.71,9.11,-1.04,1.81,0.25,-0.51,-20.13,20.61,-41.86,41322
-2.53,9.81,-2.74,-2.50,-0.50,-0.77,-20.65,21.82,-42.15,41356
-3.48,6.35,1.67,-2.97,-0.66,-0.27,-21.72,24.80,-37.69,41390
-1.06,6.44,1.75,2.03,-0.11,-0.37,-22.36,24.52,-39.56,41424
-1.93,8.26,-1.26,2.21,-0.26,0.32,-22.00,22.16,-42.27,41458
-3.46,7.43,-2.75,4.42,-0.14,0.54,-21.94,20.30,-46.24,41493
-0.28,8.45,-7.44,4.53,1.08,1.88,-19.94,17.71,-49.94,41527
0.21,9.37,-6.78,0.11,0.77,1.47,-17.83,17.89,-52.65,41561
-0.70,8.70,-4.60,0.17,-0.28,-0.22,-17.17,18.42,-52.76,41595
-0.95,8.26,-6.35,-0.26,-1.27,-1.20,-19.20,18.58,-52.40,41629
-2.32,7.87,-4.79,-1.35,-1.20,-1.06,-21.22,20.83,-50.99,41664
-1.43,9.27,-7.48,-0.52,-0.22,-0.64,-21.72,21.40,-50.07,41698
-4.91,8.72,-3.57,-1.70,0.02,-0.41,-21.97,24.36,-47.88,41732
-5.04,7.49,-3.23,-0.09,0.01,0.21,-21.92,25.74,-47.22,41766
-3.04,8.07,-3.59,0.19,-0.18,-0.11,-21.75,26.56,-47.41,41800
-4.35,7.91,-2.18,1.27,0.93,0.36,-21.66,27.32,-48.06,41834
-3.15,8.02,-4.04,1.68,0.00,0.22,-20.04,25.78,-51.14,41869
-3.49,8.04,-4.12,3.42,-0.55,0.40,-19.63,23.14,-54.81,41903
-3.36,3.07,-2.72,4.29,-1.17,-0.38,-21.28,18.56,-57.70,41937
-2.69,3.76,-5.89,3.89,-0.10,-0.33,-21.27,13.72,-60.67,41971
-3.64,6.12,-5.77,2.69,-1.08,-0.56,-20.26,9.25,-62.88,42005
-5.08,2.73,-5.62,1.66,-2.91,-0.63,-24.60,6.20,-62.95,42040
-3.60,4.56,-6.48,1.91,-1.43,-0.77,-26.98,2.76,-62.98,42074
-5.41,2.96,-7.50,2.92,-0.58,-1.19,-27.68,-1.81,-63.48,42108
-4.57,2.97,-7.27,1.75,-0.82,-0.97,-28.95,-6.05,-63.21,42142
-5.23,1.65,-7.65,0.86,-1.13,0.02,-30.62,-7.63,-62.67,42176
-5.37,2.15,-6.49,1.43,-0.89,-0.15,-31.88,-8.70,-62.17,42210
-5.55,0.90,-8.41,2.10,-0.80,-0.67,-32.48,-11.53,-61.79,42245
-4.95,2.12,-5.87,2.06,-0.46,-0.63,-33.67,-15.46,-61.65,42279
-7.63,-1.07,-7.96,1.24,-0.11,-0.46,-33.22,-18.18,-62.17,42313
-6.72,0.71,-6.45,0.85,-0.01,-0.12,-33.13,-19.00,-62.26,42347
-7.41,-0.84,-6.85,-0.19,0.04,-0.01,-32.59,-18.61,-63.27,42381
-13.91,15.92,-31.43,-0.45,-0.57,-0.13,-35.25,-17.41,-59.91,42416
4.95,-11.01,1.38,-2.72,-26.98,-7.43,-51.43,-30.30,-19.85,42450
-9.02,-19.95,24.63,2.15,2.56,-7.97,-41.46,-42.41,-2.15,42484
4.73,-6.71,-23.60,-0.80,8.49,-0.31,-43.69,-43.36,-12.16,42518
-8.45,-4.59,0.03,3.32,-4.20,-0.24,-41.92,-42.12,-0.69,42552
-6.92,-1.37,0.64,4.11,-8.74,-4.32,-34.23,-43.07,14.40,42586
1.14,-2.52,20.07,4.63,-10.44,-9.12,-10.80,-44.27,28.16,42621
-0.17,-4.47,14.10,2.15,-1.07,-1.46,-1.40,-40.25,31.77,42655
-3.08,-5.23,8.12,0.45,0.03,-1.48,-1.77,-41.06,31.19,42689
1.26,-2.55,10.52,2.51,-0.47,-1.72,0.56,-38.44,33.56,42723
-1.08,-1.62,11.66,5.43,-0.65,-3.28,4.17,-30.12,38.12,42757
-2.89,-0.32,9.99,1.27,-0.68,-3.12,7.07,-27.02,39.26,42791
-1.59,-0.64,10.55,0.10,1.80,-5.91,8.18,-26.35,39.20,42826
0.58,-0.03,7.95,0.23,0.52,-3.87,7.91,-25.90,39.43,42860
-3.82,-1.16,12.65,-0.09,-0.90,-6.49,11.11,-24.79,39.13,42894
1.21,-3.35,11.84,-0.70,0.19,-1.79,13.86,-25.15,38.60,42928
-1.45,-2.24,10.87,-1.26,0.96,-0.34,12.80,-27.62,37.88,42962
1.52,-1.87,12.46,-2.62,1.14,-0.92,11.12,-30.97,36.52,42997
-1.08,-3.22,8.42,-1.76,1.74,-1.34,8.77,-34.64,33.66,43031
-0.38,-2.55,9.07,-0.17,0.67,-0.33,8.29,-36.29,32.89,43065
0.16,-2.39,9.74,2.67,0.53,1.05,6.90,-32.32,35.15,43099
-2.34,-4.40,6.73,-0.20,-1.09,2.25,4.47,-32.51,35.97,43133
