ax,ay,az,gx,gy,gz,mx,my,mz,timestamp
0.70,9.65,-2.29,0.02,0.54,-0.05,46.35,-69.94,26.82,9620
1.55,9.24,-1.40,0.31,0.69,-0.18,44.01,-70.21,28.24,9654
1.36,9.62,-0.92,0.16,0.28,-0.35,43.45,-70.99,29.76,9688
0.95,10.17,0.32,0.00,-0.36,-0.07,42.98,-71.67,29.49,9722
1.29,9.92,0.67,-0.49,-0.64,0.32,42.98,-73.94,28.37,9756
0.83,11.73,0.25,-0.06,-0.31,0.40,40.91,-75.88,28.35,9791
0.12,7.91,0.56,-0.29,0.11,-0.36,40.25,-76.41,27.51,9825
3.23,9.90,-1.11,-0.26,-0.11,-0.12,39.04,-77.65,26.73,9859
2.28,10.03,-0.91,-0.20,0.00,-0.07,38.29,-78.19,25.61,9893
3.61,9.60,-2.49,-0.21,0.05,-0.16,37.33,-79.09,25.68,9927
4.72,9.79,-1.82,-0.04,-0.28,-0.37,36.54,-80.11,26.03,9961
7.26,9.84,-0.31,-0.21,-0.39,-0.11,35.79,-80.44,25.71,9996
2.13,7.19,-1.67,-0.81,-0.35,0.67,31.92,-82.14,23.56,10030
-3.49,10.95,-5.18,-0.66,-0.29,0.51,28.12,-83.10,21.72,10064
-10.97,9.18,-12.31,-0.88,-2.70,0.18,27.64,-83.75,17.83,10098
-1.85,8.03,-6.41,1.19,-2.11,-0.49,30.18,-80.75,18.34,10132
-0.31,4.99,-5.56,1.57,-2.20,-0.00,31.06,-77.81,20.42,10166
-1.01,7.11,-5.47,2.03,-3.36,0.72,32.81,-73.75,22.38,10201
1.82,9.03,-1.34,2.11,-3.54,1.01,34.52,-68.87,23.02,10235
-0.04,10.57,0.60,1.77,-2.76,0.82,36.86,-65.81,24.12,10269
-2.09,22.57,-0.37,1.54,-3.35,0.29,40.69,-62.25,20.86,10303
6.44,11.61,9.59,0.74,-0.95,0.34,42.88,-61.62,18.61,10337
-1.25,4.48,-3.13,-0.14,0.82,-1.63,43.79,-59.30,20.17,10372
3.51,12.81,-3.64,0.51,-1.26,-0.51,46.68,-57.79,18.04,10406
-1.93,11.25,-4.32,-0.25,-0.52,-0.32,47.53,-56.80,16.09,10440
-2.04,9.35,-3.97,-0.86,-0.23,-0.09,47.72,-57.03,14.57,10474
2.08,11.37,-2.14,-1.29,-0.12,0.14,47.65,-58.30,12.00,10508
1.79,9.14,-2.34,-1.51,0.10,0.11,47.30,-59.50,9.06,10542
1.26,6.92,-5.69,-1.17,-0.41,0.39,46.17,-60.39,7.15,10577
2.64,6.85,-2.60,-0.93,-0.78,0.42,45.92,-61.49,4.30,10611
-1.01,9.37,0.01,-0.73,-0.46,0.04,45.95,-62.58,2.69,10645
-1.76,9.69,-2.45,-0.87,-0.70,-0.29,46.59,-62.51,0.00,10679
-0.59,9.46,-2.95,-0.95,-0.58,-0.48,47.22,-62.09,-2.78,10713
2.40,10.34,-3.94,-1.17,-0.61,-0.55,48.36,-61.49,-4.84,10748
10.68,10.16,-11.17,-1.51,-1.99,-0.00,47.92,-61.53,-9.43,10782
4.45,14.32,-7.90,-1.59,-1.26,-0.34,47.76,-60.17,-13.10,10816
9.25,23.00,-5.62,-2.54,-2.81,-0.33,45.82,-60.32,-22.22,10850
-26.07,8.43,-19.39,-3.01,-2.69,-0.92,43.17,-58.02,-30.65,10884
9.59,7.15,-1.34,1.36,0.29,-1.88,43.91,-54.15,-29.19,10918
3.95,3.51,-2.07,0.47,5.72,-1.77,46.11,-49.42,-17.83,10953
-6.59,3.62,-4.13,0.44,6.70,-0.48,43.85,-47.46,-6.05,10987
-5.69,6.06,-3.67,1.03,4.10,-0.22,39.04,-45.47,3.83,11021
-5.14,7.46,-0.78,0.70,3.07,0.13,33.38,-43.91,7.94,11055
-5.37,7.58,-0.12,0.46,3.57,-0.07,27.54,-41.67,12.70,11089
-7.11,7.99,-1.66,0.95,4.24,-0.60,19.80,-38.32,16.57,11124
-5.24,9.01,-2.95,0.93,3.70,-0.74,13.88,-35.36,19.57,11158
-7.33,8.40,-3.54,0.59,2.56,-0.59,9.54,-32.42,18.78,11192
-4.98,8.91,-2.37,0.46,1.63,-0.53,5.54,-29.74,19.03,11226
-4.58,7.86,-1.35,0.33,0.83,-0.28,3.23,-27.76,18.63,11260
-3.04,7.33,-2.58,0.09,-0.50,0.09,2.03,-26.98,17.52,11294
11.43,11.73,-2.22,-0.21,-3.58,1.70,4.12,-25.75,16.63,11329
-0.26,14.21,1.59,-0.36,-2.86,0.04,7.00,-25.78,16.03,11363
1.33,8.00,1.95,-0.87,-2.37,0.83,9.02,-26.15,14.13,11397
-0.89,8.60,4.08,-1.19,-0.31,0.11,9.05,-26.63,14.28,11431
-3.57,11.41,1.69,-1.45,1.19,-0.12,7.86,-27.70,14.95,11465
-0.98,13.40,-3.16,-1.92,3.12,-0.88,4.63,-29.86,15.10,11500
-0.77,8.54,-7.11,-2.46,4.55,-1.24,0.12,-32.84,12.88,11534
-4.25,6.61,-10.12,-2.16,4.35,-0.93,-4.79,-35.97,9.87,11568
-0.67,7.14,-8.07,-1.28,3.84,-0.66,-9.21,-37.99,7.25,11602
-1.64,10.27,-4.54,-1.12,3.18,-0.04,-12.29,-39.67,3.48,11636
3.20,14.61,-2.31,-0.86,2.83,0.71,-16.95,-39.86,-1.01,11670
4.62,13.27,0.40,-1.10,3.41,0.85,-19.94,-40.06,-6.37,11705
6.63,10.71,-6.67,-1.27,4.27,0.71,-23.36,-38.89,-12.50,11739
4.54,7.29,-11.70,-1.13,5.02,0.38,-25.08,-35.98,-21.79,11773
-0.63,6.69,-12.19,-0.90,5.25,-0.03,-24.51,-33.79,-29.32,11807
0.45,8.25,-11.30,-0.53,5.07,-0.07,-20.90,-30.93,-35.41,11841
-0.72,5.51,-9.57,-0.34,4.49,-0.34,-17.30,-28.82,-38.70,11875
5.17,10.80,-9.98,-0.24,5.43,-0.35,-13.08,-26.07,-42.18,11910
-3.73,14.35,-11.55,-0.28,6.97,-1.84,-5.88,-23.59,-44.88,11944
-8.03,1.80,-19.21,-0.25,5.69,-3.10,1.11,-21.22,-44.50,11978
-1.97,6.97,-10.79,-0.07,3.31,-0.79,5.00,-19.29,-44.45,12012
1.55,16.93,-5.72,-0.50,3.48,-1.76,7.94,-17.38,-43.92,12046
-4.57,1.77,-5.17,-0.95,5.26,-2.79,12.50,-14.59,-41.58,12081
0.24,10.12,-7.82,-0.99,5.30,-2.65,17.26,-11.17,-38.72,12115
-1.30,4.47,-10.62,-1.09,5.07,-2.27,20.67,-8.58,-35.22,12149
-0.27,8.92,-1.16,-0.86,3.83,-1.35,22.13,-7.25,-32.56,12183
2.37,10.10,-0.52,-0.99,5.47,-1.52,24.52,-5.77,-26.85,12217
-1.39,8.97,-10.56,-2.60,7.58,-2.71,25.75,-2.97,-21.82,12251
-1.45,2.68,-10.74,-2.39,5.65,-1.86,25.69,-0.57,-14.62,12286
2.49,9.92,-3.55,-1.60,4.43,-1.06,24.99,-0.95,-10.86,12320
5.01,14.12,-3.63,-3.39,6.75,-2.12,23.03,-1.43,-5.79,12354
3.03,10.68,-12.31,-4.09,7.71,-2.53,19.16,-2.44,1.90,12388
4.01,8.60,-14.90,-4.12,7.26,-2.47,14.34,-4.53,6.18,12422
2.57,10.25,-14.49,-3.93,6.82,-2.11,10.10,-7.35,9.31,12457
6.20,8.79,-15.93,-4.36,7.88,-1.76,2.63,-12.88,10.57,12491
4.74,9.92,-15.66,-3.61,10.53,-2.06,-7.15,-17.36,9.53,12525
-0.11,4.48,-14.66,-2.71,9.85,-2.41,-18.21,-22.55,2.84,12559
18.13,9.52,-8.24,-1.05,6.81,-0.77,-23.71,-24.76,-5.20,12593
-1.27,6.19,-12.84,-1.52,4.98,1.89,-27.89,-23.79,-11.81,12627
-2.41,2.87,-3.47,-1.39,4.06,2.68,-31.39,-19.03,-20.45,12662
-9.66,4.96,-8.81,-0.63,3.90,1.29,-32.56,-15.89,-27.67,12696
0.03,7.91,-8.90,-0.10,2.98,-0.45,-31.51,-14.12,-32.83,12730
4.93,8.20,-10.33,-0.23,2.77,0.11,-30.28,-11.14,-38.50,12764
3.66,7.29,-9.45,-0.33,3.03,-0.11,-28.30,-8.62,-43.41,12798
-4.25,10.02,-8.54,-0.15,3.97,-1.38,-23.68,-5.64,-48.14,12833
-5.86,11.20,-7.58,-0.31,4.91,-1.82,-18.23,-3.43,-51.93,12867
-5.63,5.30,-14.27,-0.26,4.72,-3.40,-12.53,-2.05,-53.70,12901
-3.50,7.17,-9.12,-0.27,3.10,-1.97,-8.14,-0.92,-54.68,12935
-3.58,11.27,-5.42,-0.05,2.63,-1.84,-5.07,0.80,-55.38,12969
-6.74,5.26,-5.51,-0.71,3.73,-2.61,-2.15,2.85,-53.87,13003
-2.28,8.36,-4.54,-0.73,4.42,-2.78,1.97,5.14,-53.38,13038
-5.58,2.72,-1.60,-0.47,4.92,-2.69,6.33,6.74,-52.31,13072
0.52,15.34,1.24,0.24,5.27,-2.29,10.64,7.88,-51.08,13106
0.64,8.37,-5.35,-1.37,7.32,-3.03,15.39,10.87,-46.80,13140
-0.63,6.55,-8.95,-1.78,6.85,-2.56,19.67,14.41,-41.44,13174
0.19,10.32,-8.56,-1.88,6.43,-2.54,22.36,19.00,-34.99,13208
-1.19,4.73,-5.95,-2.14,6.49,-2.37,22.98,21.63,-29.11,13243
1.76,8.57,-5.20,-1.96,6.07,-2.22,22.00,23.88,-20.36,13277
2.75,10.45,-5.61,-2.29,6.56,-2.59,19.12,25.80,-14.34,13311
1.88,8.13,-5.66,-2.45,6.67,-2.85,15.43,26.73,-8.54,13345
7.38,10.33,-5.09,-2.79,6.62,-2.94,9.43,26.91,-1.15,13379
6.93,12.56,-8.83,-3.51,8.05,-3.65,1.42,24.79,3.68,13414
6.62,11.85,-13.98,-4.35,9.33,-3.83,-8.99,21.12,6.83,13448
8.05,8.81,-17.52,-4.64,9.64,-2.85,-21.34,14.35,5.10,13482
3.45,3.68,-17.63,-4.29,10.39,-2.45,-30.40,9.60,-2.29,13516
4.49,9.85,-13.30,-3.03,10.40,-2.08,-36.17,6.33,-16.60,13550
4.78,7.82,-10.50,-2.02,8.06,-1.10,-36.20,6.99,-28.08,13584
2.61,5.98,-12.09,-1.84,6.51,0.33,-33.12,10.27,-38.03,13619
-5.27,7.79,-10.66,-0.74,3.84,1.60,-26.16,15.71,-43.72,13653
-5.01,9.64,-2.99,-0.49,3.11,0.42,-20.26,19.25,-46.70,13687
-3.41,7.09,-2.11,-0.35,3.18,-0.25,-15.36,21.72,-48.68,13721
9.67,7.74,-9.81,-0.66,5.72,-1.18,-7.51,24.90,-49.69,13755
2.93,6.55,-13.51,-0.59,5.94,-1.23,-0.06,27.29,-48.45,13790
0.03,9.51,-11.87,0.04,4.04,-0.53,6.43,30.12,-45.38,13824
-2.33,9.18,-11.14,-0.20,4.18,-1.21,10.42,32.58,-42.53,13858
-1.93,9.68,-8.18,-0.22,4.41,-1.16,12.61,34.46,-36.73,13892
-5.08,12.77,-15.12,-0.71,5.60,-3.18,12.42,38.51,-31.75,13926
-9.54,-2.37,-13.88,-0.43,4.02,-2.67,9.59,40.87,-27.48,13960
-1.00,9.64,-3.47,-0.24,2.14,-1.18,7.02,41.61,-25.30,13995
-5.97,4.60,-0.97,-0.32,3.82,-2.33,3.95,42.56,-23.71,14029
0.20,7.89,-3.11,-0.54,4.61,-2.05,0.79,43.29,-21.72,14063
-3.13,5.99,-6.47,-0.67,5.10,-1.88,-3.11,43.77,-20.97,14097
2.23,10.81,-2.70,-0.35,4.63,-1.19,-4.85,44.39,-20.91,14131
0.16,11.24,-3.45,-0.97,5.45,-1.91,-7.31,44.71,-20.67,14166
-0.99,9.41,-7.01,-1.44,5.41,-2.09,-11.85,44.31,-20.42,14200
-0.93,8.26,-9.79,-2.77,6.61,-3.10,-15.86,43.89,-19.66,14234
1.90,6.08,-6.55,-2.89,6.77,-3.01,-20.62,42.47,-19.41,14268
4.78,14.33,-2.35,-3.29,8.09,-3.41,-25.50,40.95,-19.79,14302
4.88,9.33,-10.51,-4.28,9.57,-4.10,-29.57,37.81,-22.35,14336
3.92,8.61,-14.57,-3.97,8.73,-3.67,-32.72,34.73,-25.71,14371
7.23,12.13,-14.43,-3.80,7.66,-2.58,-33.50,32.32,-28.00,14405
6.50,6.65,-14.88,-4.44,8.98,-1.60,-32.83,31.35,-32.10,14439
7.55,9.48,-14.84,-3.88,11.92,-2.26,-28.65,29.52,-39.67,14473
5.51,6.01,-8.91,-2.89,10.90,-2.10,-22.07,28.47,-47.54,14507
10.01,7.79,-11.73,-1.85,8.08,-0.25,-12.83,29.17,-53.19,14541
-4.94,6.29,-14.38,-0.87,4.18,1.59,-1.17,31.04,-54.24,14576
-7.94,6.85,-5.00,-0.38,1.55,1.46,6.42,31.37,-56.26,14610
-3.73,11.44,-1.39,-0.35,1.81,0.44,13.23,30.99,-55.58,14644
4.06,8.84,-2.94,-0.80,3.84,-0.93,18.88,31.42,-53.60,14678
15.65,8.27,-10.51,-0.66,3.83,0.18,26.06,32.32,-49.47,14712
5.58,9.11,-6.23,-0.59,4.79,-0.22,35.19,31.99,-41.55,14747
5.23,6.42,-10.88,-0.52,5.87,-0.86,41.61,31.26,-31.96,14781
1.97,6.99,-15.08,-0.40,6.08,-1.52,44.17,31.47,-17.30,14815
2.16,10.32,-16.56,-0.17,5.69,-2.49,41.60,32.49,-5.86,14849
-2.77,10.36,-13.31,-0.37,5.35,-3.44,34.52,34.70,3.16,14883
-0.72,12.98,-14.24,-0.93,5.43,-4.11,22.11,36.89,11.01,14917
-7.40,-2.73,-13.84,-1.71,4.43,-2.79,11.44,36.33,15.27,14952
-6.08,6.83,-4.11,-0.79,3.10,-2.09,4.14,35.72,16.53,14986
-6.87,6.08,-3.47,-1.14,4.28,-2.56,-5.69,34.30,17.89,15020
-4.86,4.93,-7.30,-1.09,4.70,-2.54,-14.73,32.15,17.58,15054
-2.28,10.90,-3.68,-0.79,4.64,-2.01,-23.95,29.44,15.20,15088
2.75,9.96,-6.91,-1.80,6.45,-2.26,-31.79,26.59,10.48,15123
-4.93,3.56,-6.78,-2.02,7.07,-2.45,-39.90,22.03,2.50,15157
-4.72,7.68,-5.68,-2.11,6.56,-2.13,-46.96,17.57,-6.75,15191
-8.85,4.82,-3.03,-2.10,5.59,-2.04,-49.82,14.26,-14.81,15225
-3.36,9.50,-2.85,-1.88,4.34,-1.63,-51.59,11.98,-20.83,15259
-4.28,8.68,-4.61,-2.42,5.06,-2.43,-51.27,8.21,-29.29,15293
-1.19,7.32,-3.30,-2.45,4.47,-2.03,-50.58,5.51,-36.04,15328
2.89,7.64,-1.23,-2.18,3.55,-0.76,-48.51,4.98,-42.88,15362
9.29,13.51,-2.51,-2.30,4.34,-0.50,-45.43,6.49,-47.19,15396
6.59,11.13,0.22,-2.37,5.29,-0.36,-41.48,8.81,-53.32,15430
2.51,10.98,-7.52,-2.76,6.67,-1.56,-34.46,12.01,-59.72,15464
1.57,6.28,-13.34,-2.77,6.34,-2.29,-28.88,14.81,-63.33,15499
8.70,10.10,-14.99,-2.91,4.76,-1.50,-24.55,16.57,-65.84,15533
21.40,18.90,-11.89,-4.30,6.27,-1.18,-16.90,22.90,-67.22,15567
24.22,23.98,-23.49,-5.82,11.47,-2.15,-4.03,30.44,-66.69,15601
6.88,16.73,-34.43,-4.66,11.73,-3.34,14.12,38.82,-57.41,15635
3.05,2.40,-29.65,-4.28,7.87,-1.07,24.79,42.84,-45.40,15669
8.34,10.58,-19.62,-0.87,4.90,-0.02,31.88,41.61,-36.41,15704
1.87,8.92,-12.87,-1.31,7.64,0.79,37.66,38.23,-21.95,15738
19.76,6.65,-8.90,-0.78,7.89,2.17,40.70,32.49,-8.08,15772
-2.82,7.94,-22.49,-1.72,8.44,2.18,34.77,23.50,10.74,15806
-5.00,-1.29,-24.53,-0.97,5.44,1.72,30.05,17.85,19.16,15840
-2.65,-1.11,-13.90,0.57,0.97,2.56,26.31,13.99,20.78,15875
-5.25,22.92,-5.68,0.89,2.05,-0.39,21.78,12.83,22.22,15909
-6.82,3.98,-12.29,0.22,3.29,-2.52,13.34,13.26,24.47,15943
-6.10,16.21,-9.26,-0.23,3.56,-1.51,5.19,14.29,24.07,15977
-13.77,-8.37,-10.91,-1.54,3.24,-4.17,-4.74,13.36,22.96,16011
-5.69,-2.66,-9.14,-0.61,1.76,-1.99,-10.64,12.63,22.51,16045
-3.65,26.86,0.69,-1.42,3.02,-2.85,-16.31,11.08,20.23,16080
-2.55,-4.90,-6.79,-2.70,4.40,-3.55,-24.17,5.70,17.35,16114
2.49,9.05,-5.38,-0.83,2.39,-1.50,-28.59,4.00,14.82,16148
3.85,15.98,1.67,-1.87,4.41,-1.71,-33.67,1.59,10.46,16182
2.97,13.58,-10.83,-2.66,6.75,-2.09,-39.55,-1.64,1.74,16216
-5.85,-1.74,-14.99,-3.02,6.47,-1.10,-43.26,-2.89,-8.14,16250
-1.79,5.65,-4.61,0.50,2.42,0.49,-44.37,-2.34,-13.94,16285
-1.68,18.68,1.28,-0.93,4.16,-0.22,-45.35,-1.04,-18.88,16319
-3.55,5.63,-2.30,-2.30,6.55,-1.52,-44.58,-1.86,-27.87,16353
-1.39,7.09,-18.42,-2.32,5.98,-2.48,-43.07,-2.85,-36.42,16387
-3.81,4.17,-14.20,-2.78,4.98,-2.40,-40.18,-4.06,-42.58,16421
3.15,10.94,-0.40,-2.51,4.28,-1.46,-37.37,-4.38,-48.22,16456
9.70,15.95,-5.18,-2.64,6.27,-1.77,-32.26,-4.09,-52.88,16490
12.88,10.47,-11.85,-3.88,7.89,-1.76,-24.03,-2.46,-60.45,16524
14.60,16.24,-17.24,-4.63,8.82,-0.99,-10.95,1.74,-63.56,16558
12.49,17.57,-23.12,-4.93,9.89,-1.29,2.18,6.37,-64.18,16592
7.42,9.14,-33.87,-5.24,10.38,-1.69,17.68,12.13,-57.57,16626
1.22,2.24,-24.82,-3.98,8.85,-1.02,28.19,16.94,-48.38,16661
-1.45,3.44,-16.80,-3.05,7.32,-1.24,34.80,19.10,-38.63,16695
-4.16,8.08,-15.34,-1.51,6.21,-1.00,38.98,20.05,-27.40,16729
1.07,5.91,-7.59,-0.76,5.47,-0.56,40.73,20.53,-18.55,16763
17.06,11.16,-7.20,-0.15,5.37,0.15,40.63,18.68,-7.10,16797
4.38,11.76,-10.89,-0.99,7.58,0.63,36.98,15.95,5.45,16832
3.98,1.89,-18.32,-0.85,7.54,1.24,30.21,12.20,16.71,16866
-6.01,5.44,-23.12,0.19,6.65,0.83,17.14,9.41,24.17,16900
-11.94,1.75,-19.03,0.61,2.76,-0.95,8.30,10.39,25.27,16934
-6.63,7.50,-9.55,1.29,1.88,-1.21,1.46,12.61,23.97,16968
-7.71,17.71,-9.05,0.83,3.64,-3.74,-9.18,13.77,22.20,17002
-4.59,0.61,-13.86,-0.60,2.98,-3.63,-18.55,12.15,19.09,17037
-5.43,5.26,-5.85,-0.65,1.61,-1.52,-23.69,11.53,16.34,17071
-6.41,6.07,0.04,-1.26,3.11,-1.81,-27.58,10.58,12.44,17105
-3.84,8.01,-10.72,-1.37,5.07,-2.57,-33.75,7.72,8.35,17139
-9.16,-0.63,-6.59,-1.37,4.71,-2.33,-40.05,3.29,0.86,17173
-1.23,-1.51,3.74,-0.14,1.45,0.01,-41.10,2.40,-1.65,17208
7.85,17.96,-1.91,1.76,3.82,-0.90,-42.98,2.22,-7.54,17242
-3.11,7.10,-10.77,-1.38,5.80,-2.55,-45.37,-0.86,-18.87,17276
-5.14,5.26,-11.21,-0.90,3.46,-1.63,-45.16,-2.84,-25.21,17310
-0.06,15.12,-4.52,-0.88,2.56,-1.41,-44.50,-4.59,-29.64,17344
-1.95,4.47,0.85,-2.06,4.43,-1.87,-43.01,-6.08,-34.77,17378
1.12,10.55,-0.37,-1.61,5.11,-1.65,-39.83,-6.28,-41.46,17413
1.24,13.58,-7.42,-2.65,7.13,-2.92,-33.08,-5.20,-51.52,17447
1.98,2.08,-10.01,-3.61,7.01,-3.34,-25.40,-3.99,-56.99,17481
7.89,14.88,-4.06,-2.73,6.19,-2.99,-17.30,-2.48,-61.11,17515
5.86,13.61,-5.16,-3.79,7.43,-3.70,-6.64,0.64,-62.39,17549
8.20,13.88,-12.60,-4.00,7.13,-3.10,2.31,3.95,-61.03,17583
9.18,16.00,-15.55,-4.29,6.95,-2.47,12.53,8.48,-57.57,17618
10.95,10.49,-16.95,-5.38,8.60,-0.97,22.19,10.98,-51.08,17652
9.94,11.65,-18.80,-3.47,11.54,-1.26,33.09,12.74,-39.36,17686
9.54,10.00,-19.22,-2.78,11.99,-2.41,41.01,13.04,-18.68,17720
9.54,8.70,-18.77,-0.29,8.84,-0.32,41.90,11.78,-4.09,17754
4.17,7.77,-20.85,-0.65,6.26,1.72,38.19,5.90,11.30,17789
-2.49,7.46,-13.00,-0.91,5.87,1.30,30.20,2.08,20.86,17823
-14.36,1.66,-10.91,-0.59,4.99,1.02,19.58,1.05,25.71,17857
-8.45,5.34,-17.37,0.09,4.97,-2.03,8.45,2.29,27.95,17891
-1.86,4.02,-13.22,0.31,3.53,-2.26,-0.31,4.79,26.64,17925
9.61,10.98,-4.12,0.11,1.12,1.84,-4.34,7.60,26.32,17959
2.61,14.25,-2.03,-0.73,3.49,0.80,-8.46,10.55,22.84,17994
-9.99,3.49,-14.22,-0.73,5.56,-1.33,-15.64,12.16,19.91,18028
-7.22,5.00,-13.40,0.55,4.38,-3.05,-22.84,12.73,14.41,18062
-3.18,12.99,-5.46,0.77,3.81,-2.82,-27.97,12.66,10.17,18096
-0.41,6.25,-10.65,-0.92,5.54,-3.52,-33.28,10.49,4.40,18130
-1.55,5.72,-13.99,-0.99,6.28,-3.46,-39.11,6.55,-3.62,18165
-3.20,11.58,-8.63,-1.64,6.63,-3.73,-42.50,2.27,-12.06,18199
-8.30,-1.98,-5.35,-1.88,6.64,-3.52,-44.01,-2.62,-23.17,18233
3.65,10.53,0.47,-1.31,5.22,-2.52,-42.71,-6.12,-30.44,18267
2.80,15.61,-0.30,-2.42,7.33,-2.68,-40.02,-7.56,-39.65,18301
0.18,4.74,-12.63,-3.15,8.13,-3.18,-31.80,-8.17,-51.48,18335
1.56,8.24,-13.90,-3.23,7.08,-2.86,-23.88,-6.80,-57.12,18370
7.06,14.29,-7.71,-3.74,6.62,-1.65,-15.08,-4.43,-60.90,18404
13.78,23.84,-4.02,-4.94,8.97,-1.10,-1.64,1.32,-61.75,18438
23.49,16.80,-16.08,-5.46,12.13,-1.04,14.66,5.93,-55.93,18472
13.56,8.52,-31.94,-3.06,14.28,-2.41,30.52,7.63,-38.31,18506
14.64,9.97,-28.48,-1.55,10.17,-2.33,38.50,6.39,-22.27,18541
-1.79,3.32,-28.18,-2.11,7.43,-1.31,38.06,5.00,-11.20,18575
1.22,2.62,-10.14,-1.04,4.61,0.44,36.29,2.47,-3.10,18609
5.61,5.96,-6.65,-0.87,4.16,1.26,34.08,0.57,2.57,18643
5.19,10.27,-7.95,-0.59,4.39,0.77,30.94,-1.53,6.05,18677
0.68,4.46,-7.47,-0.32,4.88,1.20,26.18,-2.82,12.39,18711
-1.89,9.19,-9.50,-0.07,3.84,2.12,22.61,-4.44,14.98,18746
-1.49,3.75,-17.03,0.01,3.00,0.39,19.28,-5.45,17.19,18780
2.29,7.26,-14.28,0.48,1.87,0.66,17.30,-5.90,18.84,18814
2.00,12.36,-8.77,0.35,2.69,-0.65,14.62,-5.38,19.92,18848
-4.82,9.19,-14.81,0.59,3.25,-3.01,9.37,-2.98,21.38,18882
-4.70,11.46,-1.70,0.58,2.85,-3.12,5.04,-1.61,21.94,18916
1.82,25.43,-8.50,-0.91,5.75,-4.41,-2.63,-2.47,21.08,18951
-0.67,-2.74,-22.58,-2.80,6.75,-5.17,-13.94,-6.61,19.10,18985
-7.25,-9.10,-11.97,-1.59,4.08,-2.39,-19.34,-9.43,15.89,19019
2.34,23.14,8.01,-2.14,5.55,-1.36,-25.33,-11.31,10.90,19053
-0.59,5.15,-10.82,-3.82,10.26,-3.54,-33.24,-15.42,0.66,19087
-5.34,0.80,-23.34,-2.98,8.99,-3.40,-36.73,-19.92,-11.91,19122
-5.61,4.74,-16.19,-2.52,5.29,-1.99,-36.66,-22.67,-21.95,19156
1.71,13.25,-5.20,-2.57,4.97,-1.18,-35.24,-22.67,-28.30,19190
8.41,18.00,-7.25,-4.01,7.39,-1.06,-30.90,-21.22,-39.01,19224
16.02,8.98,-17.46,-4.98,14.20,-1.68,-19.85,-18.25,-51.56,19258
6.76,2.33,-17.27,-3.79,14.92,-2.63,-1.89,-15.58,-56.26,19292
0.70,3.93,-21.63,-2.30,8.79,-0.79,14.91,-13.77,-52.40,19327
-1.23,7.67,-15.25,-1.06,3.04,1.12,19.00,-14.31,-50.94,19361
-5.45,8.18,-4.96,-1.06,3.29,-0.41,22.42,-14.91,-48.52,19395
-6.19,6.83,-8.77,-1.27,4.86,-3.03,27.26,-13.18,-44.07,19429
-1.42,10.03,-13.51,-1.58,4.74,-2.79,31.39,-9.94,-38.42,19463
2.84,11.35,-8.06,-1.86,3.95,-1.76,33.65,-8.04,-33.38,19498
11.94,17.42,-7.62,-2.70,5.08,-1.26,35.05,-6.40,-27.68,19532
-2.88,1.69,-15.08,-3.31,8.91,-2.07,36.03,-5.32,-19.12,19566
-0.85,2.40,-14.51,-1.26,8.62,-2.08,34.60,-4.15,-7.16,19600
14.17,0.75,-3.30,-0.88,6.25,-0.08,30.93,-4.74,-0.48,19634
-1.40,8.40,-16.27,-0.14,6.13,-0.28,27.32,-4.68,5.00,19668
-4.91,2.29,-14.02,-0.16,4.78,0.35,22.41,-5.88,9.63,19703
-14.98,6.16,-8.23,0.31,2.11,0.96,19.92,-7.37,10.90,19737
-5.08,10.49,-7.12,0.62,1.07,-0.49,18.24,-7.18,11.63,19771
6.98,8.05,-5.37,0.01,1.01,0.04,17.04,-7.29,11.78,19805
2.13,9.94,-5.17,-0.32,1.80,1.12,15.32,-8.65,13.05,19839
-3.97,8.49,-8.65,-0.24,3.34,-0.56,11.39,-9.78,13.26,19874
-9.19,6.06,-6.20,0.38,2.46,-1.87,8.21,-9.18,14.18,19908
6.42,8.18,-1.91,0.33,1.56,-0.60,6.08,-9.27,14.86,19942
2.29,6.24,2.64,-0.39,2.79,0.78,2.13,-9.27,13.67,19976
7.22,9.98,-8.40,0.15,4.41,1.08,-2.24,-10.01,12.47,20010
-6.10,5.92,-18.05,0.65,5.57,-2.23,-9.16,-10.48,9.98,20044
-7.42,6.39,-15.50,1.04,2.29,-2.74,-11.78,-10.84,9.31,20079
-2.49,16.93,-2.48,0.89,0.45,-2.32,-12.58,-11.21,9.79,20113
-4.33,13.03,-1.34,-0.19,1.63,-3.67,-12.95,-11.97,7.83,20147
-0.79,6.31,-5.23,0.05,2.72,-2.94,-13.53,-13.30,6.42,20181
-4.39,13.51,-2.86,-1.22,4.98,-4.16,-16.56,-15.77,3.77,20215
-9.32,-0.80,2.85,-1.26,5.15,-4.50,-18.12,-18.85,-0.01,20250
9.64,15.16,-0.50,-1.59,5.95,-4.34,-18.49,-22.22,-4.49,20284
10.97,6.04,-1.18,-2.77,7.60,-3.95,-18.56,-25.86,-11.46,20318
18.41,20.09,-1.43,-3.07,7.96,-1.94,-18.11,-27.78,-18.68,20352
19.15,18.54,-7.92,-5.27,12.65,-2.48,-15.84,-28.56,-27.62,20386
20.48,10.63,-23.59,-5.22,13.93,-3.53,-7.78,-27.46,-38.38,20420
9.47,15.27,-33.03,-4.55,11.16,-4.41,1.96,-24.44,-42.43,20455
4.42,3.61,-16.14,-4.04,7.31,-2.50,11.01,-19.18,-41.80,20489
-39.20,38.89,-34.73,-0.21,0.93,-4.46,14.00,-15.64,-42.20,20523
16.10,7.77,-10.85,-2.94,4.60,-1.60,13.56,-12.31,-42.52,20557
13.53,12.98,-20.57,-2.55,10.06,-1.14,21.38,-10.70,-34.98,20591
3.68,9.91,-20.35,-3.44,7.58,0.47,25.78,-10.84,-26.91,20625
3.08,-1.63,-10.80,-3.95,4.71,3.79,27.67,-18.01,-18.85,20660
13.99,-8.92,-12.55,-2.84,3.83,5.88,26.00,-22.16,-13.53,20694
-13.58,12.99,-5.24,-1.28,4.60,2.18,22.89,-27.13,-8.23,20728
-7.79,2.58,-18.61,-2.66,3.86,-1.46,19.61,-28.95,-4.22,20762
6.54,15.74,-21.97,-0.27,2.41,-0.09,16.37,-31.41,-3.68,20796
-10.78,12.87,-8.29,-0.97,3.16,0.43,10.87,-32.55,-2.92,20831
-1.28,12.34,-6.16,-2.00,3.83,0.81,2.57,-32.91,-3.48,20865
-2.61,14.38,-9.78,-2.03,4.62,0.54,-4.81,-30.99,-4.94,20899
0.86,11.70,-21.18,-2.59,6.40,0.66,-13.90,-25.10,-8.89,20933
-0.93,15.66,-11.70,-2.60,8.57,1.09,-20.04,-16.37,-15.55,20967
-0.15,13.81,-19.48,-3.50,8.79,1.24,-22.13,-5.32,-21.60,21001
-5.00,13.81,-23.27,-2.76,8.54,1.27,-18.34,6.55,-23.22,21036
-3.99,15.03,-18.68,-3.03,6.89,2.17,-13.71,11.88,-21.50,21070
-13.11,12.26,-11.83,-2.17,6.37,2.54,-9.73,13.04,-18.52,21104
-9.29,11.14,-12.30,-0.47,6.11,2.39,-7.42,11.91,-18.25,21138
-8.45,12.64,-8.92,-0.27,4.74,2.84,-6.11,10.45,-18.87,21172
-6.50,12.75,-3.60,0.70,3.73,2.09,-5.47,9.11,-20.58,21207
-6.30,11.31,-5.11,0.79,3.38,1.21,-5.17,8.10,-21.73,21241
-6.20,8.25,-3.25,0.46,2.40,1.00,-5.20,6.97,-23.31,21275
-10.77,7.39,0.05,0.78,0.98,0.74,-4.95,6.11,-22.51,21309
1.08,9.09,2.20,1.50,0.27,0.18,-5.51,5.85,-23.71,21343
-1.51,8.69,2.48,1.49,0.23,-0.15,-5.41,5.19,-23.88,21377
-8.53,8.52,0.49,1.65,-1.30,-0.62,-6.72,4.57,-24.47,21412
2.19,11.43,2.56,1.55,-2.51,-0.59,-7.51,4.05,-24.38,21446
0.53,8.11,2.25,1.09,-2.25,-0.60,-8.86,4.06,-23.38,21480
1.17,5.10,1.29,1.03,-1.26,-0.52,-9.81,3.32,-23.09,21514
0.30,0.05,2.91,0.62,-0.33,-0.43,-10.32,3.77,-23.18,21548
-4.03,-4.84,5.29,0.51,0.51,0.17,-10.25,4.63,-23.87,21583
-39.20,-5.22,-30.93,1.18,0.82,-0.10,-9.84,5.20,-25.67,21617
8.95,29.96,21.66,-0.91,3.63,-1.05,-9.27,4.91,-28.94,21651
-34.40,-34.85,20.69,-17.46,-1.92,-5.09,-9.63,5.10,-28.27,21685
4.18,23.08,-8.89,6.40,0.27,0.02,-9.76,3.07,-31.19,21719
-3.02,18.98,1.39,2.34,-1.21,0.81,-9.94,1.14,-30.97,21753
-3.45,14.20,1.59,1.77,-0.34,1.39,-10.27,0.10,-31.53,21788
-3.16,9.52,-4.35,0.35,0.53,1.89,-10.23,-0.41,-31.31,21822
-2.67,13.91,-0.86,0.22,1.13,2.54,-10.03,-0.26,-32.18,21856
0.19,6.56,-1.35,-1.50,2.61,3.02,-9.89,1.42,-33.76,21890
0.52,5.60,-3.94,-0.37,3.24,2.87,-7.79,3.13,-35.31,21924
-2.15,2.23,-19.27,1.13,3.83,0.81,-4.91,3.30,-37.64,21958
7.28,-1.91,-15.86,1.13,1.79,0.46,-2.66,2.34,-38.04,21993
6.64,3.28,-13.02,1.38,2.14,-0.85,-1.33,0.66,-39.75,22027
0.19,8.43,-15.47,2.80,3.98,-2.61,0.64,-2.22,-39.16,22061
6.84,17.94,-8.20,4.10,5.42,-2.50,3.11,-5.41,-38.79,22095
-5.65,12.95,-14.23,4.02,8.27,-4.39,8.14,-7.21,-36.83,22129
-12.70,9.35,-13.99,2.07,5.12,-3.95,11.50,-7.04,-35.30,22164
-19.28,11.98,-6.60,0.13,2.76,-3.98,13.27,-3.93,-34.26,22198
-11.78,9.54,2.62,-0.21,1.15,-4.36,12.70,0.63,-35.33,22232
-39.20,15.01,-22.23,1.40,1.85,-6.06,12.10,5.28,-36.29,22266
-5.56,15.90,-3.80,1.24,2.98,-6.07,9.70,9.73,-38.64,22300
11.44,19.45,-21.14,2.90,1.73,-0.17,8.84,11.36,-41.25,22334
2.75,12.63,13.00,-0.55,-0.16,-0.88,6.84,13.45,-41.68,22369
5.18,12.71,-0.44,-0.42,0.85,-0.63,5.71,14.56,-42.98,22403
-2.94,7.36,-0.73,-1.16,0.93,-0.33,5.06,15.90,-42.34,22437
1.12,10.13,-4.00,-0.68,1.39,-0.76,5.45,17.33,-42.78,22471
-4.38,8.27,-6.09,-0.33,0.29,-1.01,4.62,17.64,-43.66,22505
0.20,11.82,-1.34,0.14,0.07,-1.16,3.07,17.74,-45.06,22540
-0.07,10.44,-2.18,-0.17,-0.66,-1.02,1.24,17.64,-45.50,22574
3.04,10.61,-2.33,-0.62,-1.28,-0.41,-0.15,18.71,-46.01,22608
8.55,10.94,-5.73,-1.02,-1.29,0.05,-2.63,19.07,-45.82,22642
13.14,9.03,-7.37,-1.12,-0.71,0.36,-2.94,19.85,-45.97,22676
13.43,12.34,-3.57,-1.98,0.39,0.68,-2.98,21.34,-45.02,22710
11.17,22.73,-8.00,-2.62,1.39,0.62,-1.52,23.59,-41.99,22745
-8.91,13.39,-10.46,-4.84,3.15,-0.89,0.42,25.71,-37.11,22779
8.27,12.94,-10.79,1.86,8.66,-5.67,0.82,25.40,-38.48,22813
-0.32,6.16,-11.94,1.05,7.76,-4.16,3.23,22.70,-39.08,22847
-2.53,3.74,-8.44,0.58,3.64,-1.41,5.47,21.84,-38.61,22881
-0.92,5.80,-1.55,0.07,2.01,0.66,8.11,20.42,-34.51,22916
-1.12,6.48,-4.43,0.84,3.25,1.29,11.15,18.69,-32.42,22950
-3.77,10.10,-3.48,1.53,1.01,2.26,11.65,18.37,-28.91,22984
-5.52,7.06,4.59,1.11,5.50,-0.11,12.35,18.81,-25.69,23018
-10.10,5.74,-5.04,1.43,5.84,-0.62,11.75,19.56,-23.82,23052
-13.59,4.42,-5.10,-0.40,1.85,0.46,11.58,20.34,-22.41,23086
-9.23,6.49,-1.61,-0.61,-0.72,1.02,12.45,20.94,-22.68,23121
-2.43,7.89,0.64,-0.14,-0.19,0.77,12.88,21.27,-23.22,23155
-4.37,9.19,-2.80,0.38,0.80,0.19,13.49,20.90,-23.11,23189
-13.06,15.45,-1.80,-0.11,-1.40,-0.43,13.64,20.97,-23.88,23223
2.66,9.01,-2.04,-1.12,-1.69,0.03,13.15,20.80,-24.58,23257
-5.00,7.37,-0.09,-1.17,-0.75,-0.38,12.31,19.94,-24.88,23291
2.22,6.65,-0.22,-1.15,-0.94,-0.05,12.50,19.41,-25.45,23326
-1.09,12.20,-2.19,-1.66,1.08,-0.64,11.93,18.37,-23.63,23360
4.43,7.12,-0.53,-1.88,2.19,-0.27,12.38,17.41,-21.84,23394
5.98,9.35,-0.68,-1.66,3.49,0.56,12.99,16.08,-20.29,23428
3.80,14.08,-5.69,-1.60,5.26,0.39,13.90,14.07,-18.28,23462
2.18,14.30,-13.23,-1.71,6.99,-0.54,14.02,13.84,-15.49,23497
-0.91,5.95,-19.67,-0.90,5.70,-2.03,13.11,14.43,-12.57,23531
-2.22,5.28,-11.16,-0.40,3.64,-1.74,12.28,16.28,-11.66,23565
4.09,6.50,-7.95,-0.27,3.39,-1.23,10.92,17.10,-9.78,23599
6.13,11.06,-1.60,-0.49,5.00,0.18,11.06,17.92,-6.33,23633
-0.79,10.35,-8.07,-0.47,7.06,-0.89,8.55,18.27,-3.84,23667
-0.70,3.85,-15.30,-0.15,6.95,-1.13,5.03,18.63,-0.94,23702
-5.41,4.35,-19.09,0.34,4.80,-0.59,0.37,19.47,-0.13,23736
-5.22,11.40,-11.40,0.33,3.92,-1.45,-3.74,20.64,0.00,23770
-8.05,8.86,-6.74,0.17,3.48,-2.25,-7.91,20.59,-1.45,23804
-5.13,4.57,-6.57,0.18,3.33,-2.22,-12.80,19.96,-2.86,23838
-2.02,7.45,-4.40,0.18,3.22,-1.72,-15.96,19.95,-4.37,23873
0.59,10.01,0.18,-0.26,4.83,-1.98,-20.07,19.09,-6.77,23907
-2.67,6.71,-6.39,-0.67,6.58,-2.94,-24.03,17.29,-11.15,23941
0.06,7.60,-11.25,-1.02,7.32,-3.60,-28.19,14.28,-16.41,23975
-4.08,9.30,-5.58,-2.14,8.42,-4.95,-30.80,10.01,-25.64,24009
3.45,7.42,-4.10,-2.76,9.17,-5.34,-29.99,5.36,-32.32,24043
4.91,8.33,-6.21,-3.11,9.40,-5.10,-25.27,2.60,-41.22,24078
14.07,13.67,-7.25,-3.69,9.00,-3.79,-19.38,2.03,-45.57,24112
10.39,14.43,-6.67,-4.19,10.21,-3.56,-11.55,3.45,-48.73,24146
11.44,3.92,-14.74,-4.45,12.38,-3.48,0.29,6.01,-47.72,24180
5.79,5.08,-23.72,-3.47,12.41,-4.04,8.68,8.52,-42.31,24214
-0.38,5.29,-19.62,-2.72,9.95,-3.29,14.15,10.06,-36.16,24249
0.46,6.83,-15.40,-1.44,5.61,-1.56,17.35,11.58,-32.59,24283
3.92,7.16,-7.43,-0.74,4.20,-0.85,19.03,11.44,-30.08,24317
7.82,10.55,-2.87,-0.90,5.12,-0.91,20.43,11.60,-26.44,24351
1.73,9.11,-10.46,-0.80,6.89,-2.27,20.53,12.77,-21.12,24385
-0.56,-3.31,-7.76,-0.75,4.89,-0.26,20.52,13.53,-17.01,24419
14.51,13.14,-7.56,0.91,3.16,1.54,21.40,12.17,-13.58,24454
0.42,9.29,-6.91,-0.37,3.77,1.19,21.22,10.70,-10.77,24488
-2.21,1.72,-13.33,0.13,3.28,0.89,20.78,9.38,-6.72,24522
-7.07,10.24,-14.43,1.10,1.55,0.78,19.88,9.15,-6.09,24556
-5.31,14.91,-10.69,0.68,1.73,-2.23,18.05,9.68,-4.78,24590
-1.66,10.31,-13.71,0.24,2.69,-4.21,13.71,12.57,-4.21,24625
4.64,15.05,-10.44,-1.13,5.68,-6.02,6.91,14.72,-1.29,24659
0.74,-1.28,-8.96,-3.07,7.01,-4.76,-1.34,13.83,-0.09,24693
3.13,9.49,-4.91,-2.28,7.00,-3.06,-10.36,11.65,1.05,24727
-0.29,7.71,-12.69,-3.15,9.62,-3.49,-16.62,9.47,-2.89,24761
-3.52,-0.75,-17.88,-3.18,10.08,-3.70,-24.06,5.67,-10.04,24795
-2.06,3.53,-12.52,-3.00,8.94,-3.44,-27.07,2.73,-16.52,24830
1.14,13.03,-7.27,-3.57,9.43,-3.41,-27.17,0.47,-23.85,24864
0.97,7.95,-11.93,-3.84,9.94,-3.93,-25.01,-1.45,-32.52,24898
4.21,7.38,-18.08,-3.67,8.40,-3.34,-20.93,-2.37,-38.19,24932
5.29,6.46,-17.76,-4.32,8.42,-2.17,-15.84,-1.40,-42.30,24966
10.89,9.59,-8.53,-3.34,9.24,-1.79,-7.83,0.41,-44.93,25000
12.01,10.69,-13.72,-3.55,12.10,-2.49,0.42,1.81,-45.06,25035
-7.68,1.19,-16.93,-2.93,9.94,-1.33,9.84,3.87,-40.84,25069
4.74,7.85,-14.07,-1.55,6.26,0.74,14.05,4.21,-38.31,25103
-12.12,8.48,-10.67,-1.86,5.38,0.18,16.98,5.17,-35.93,25137
0.13,6.03,-10.37,-1.35,5.05,-0.88,19.76,7.02,-32.30,25171
6.56,9.34,-14.64,-0.81,5.40,-1.68,21.32,9.06,-28.05,25206
4.61,13.16,-17.92,-0.86,5.99,-3.20,21.69,12.16,-22.48,25240
-5.36,4.16,-19.34,-1.09,4.79,-3.04,19.01,14.29,-17.58,25274
1.26,4.51,-10.33,-1.14,3.21,-1.03,17.74,14.86,-14.95,25308
1.71,13.35,-2.90,-0.98,4.88,-1.23,15.30,14.43,-10.48,25342
2.90,8.68,-7.12,-1.24,6.65,-1.60,11.63,13.61,-6.18,25376
7.06,3.04,-10.91,-0.36,6.21,-0.57,7.07,12.34,-4.12,25411
2.19,8.68,-16.51,-0.15,5.65,-0.79,1.89,10.77,-3.68,25445
-3.36,2.97,-12.05,-0.18,4.24,-0.01,-1.97,9.43,-4.53,25479
-5.16,7.48,-9.70,0.26,3.30,0.01,-4.79,8.86,-5.93,25513
-6.44,10.51,-8.34,0.28,4.25,-1.49,-8.17,8.49,-8.02,25547
-3.34,4.44,-7.63,0.15,4.32,-2.07,-11.08,8.04,-11.56,25582
5.46,8.57,-5.40,0.19,2.93,-0.01,-13.15,7.54,-14.48,25616
4.61,10.35,-1.91,0.03,3.41,0.07,-13.93,7.85,-17.23,25650
4.81,7.27,-11.47,-0.28,4.73,0.08,-13.94,8.93,-20.64,25684
-5.56,8.58,-16.64,0.16,5.73,-2.49,-13.34,9.25,-25.42,25718
-7.62,11.98,-14.20,-0.02,5.97,-4.77,-13.50,7.83,-28.02,25752
5.43,11.60,-11.41,-1.56,5.99,-5.22,-13.87,6.78,-30.49,25787
-1.84,-0.10,-9.21,-2.28,6.88,-4.23,-12.82,6.11,-31.42,25821
-0.27,1.98,-6.50,-2.27,6.64,-3.40,-11.74,5.98,-33.69,25855
-7.00,8.49,-6.72,-2.66,7.57,-3.91,-9.03,5.28,-34.39,25889
-4.84,5.89,-11.09,-3.00,7.50,-4.10,-7.22,5.74,-35.17,25923
-7.92,2.12,-13.58,-2.16,5.44,-3.52,-4.91,5.79,-35.24,25958
-4.02,3.29,-8.75,-2.39,2.92,-1.18,-3.00,7.23,-34.64,25992
3.97,14.80,-7.16,-1.24,4.20,-2.07,-1.65,8.26,-33.69,26026
8.68,11.45,-1.38,-2.94,9.56,-3.22,2.31,8.87,-32.32,26060
-3.63,4.58,-7.69,-2.16,8.78,-2.99,5.16,9.69,-29.01,26094
-10.81,1.05,-7.04,-1.83,4.87,-1.02,6.88,9.56,-26.29,26128
-14.39,6.48,-6.18,-0.12,0.43,0.41,7.53,9.53,-26.57,26163
-9.82,12.95,-2.42,-0.13,-0.87,-0.40,7.31,9.51,-24.98,26197
-3.47,4.05,-4.61,-0.82,0.72,-1.18,6.46,10.54,-23.56,26231
5.18,14.41,-6.69,-2.10,3.19,-1.62,5.38,10.84,-22.33,26265
18.34,17.82,-2.68,-3.79,5.65,-1.74,5.95,11.31,-19.47,26299
3.10,-5.34,0.10,-1.46,5.63,-0.45,4.57,11.56,-15.81,26333
8.48,2.14,4.88,0.78,1.76,5.28,5.66,10.32,-13.86,26368
-3.76,39.16,-39.16,19.45,1.68,2.75,7.09,9.47,-17.61,26402
-2.25,-0.24,-30.56,5.74,-0.04,1.21,6.21,10.22,-14.70,26436
-9.60,12.38,-11.37,0.61,0.56,0.37,6.04,11.12,-13.84,26470
3.16,-4.92,-14.31,-2.11,1.06,0.11,5.80,11.88,-13.58,26504
-3.57,17.27,-1.41,1.07,0.46,-0.70,4.63,12.85,-14.47,26539
-5.30,8.04,-2.39,-1.24,1.55,-0.20,3.89,14.18,-13.75,26573
-7.07,6.76,-7.26,-0.41,0.79,-0.37,3.05,15.16,-13.86,26607
-8.69,7.66,-8.08,-0.24,0.33,-0.73,2.37,15.57,-14.10,26641
-6.61,6.50,-7.80,0.28,-0.52,-1.01,1.52,15.70,-14.13,26675
1.20,9.03,-7.22,0.79,-0.75,-1.10,0.89,16.08,-14.85,26709
1.12,8.74,-4.62,-0.70,0.18,-0.97,-0.29,16.18,-14.97,26744
2.11,9.30,-3.48,-0.80,0.95,-1.07,-1.56,16.82,-13.96,26778
5.82,8.15,-4.05,-0.98,2.26,-1.18,-3.01,16.40,-13.53,26812
5.52,9.47,-1.24,0.15,2.25,-1.19,-4.34,16.94,-13.81,26846
8.86,9.96,-4.81,-0.49,3.51,-1.00,-6.07,17.64,-13.96,26880
4.48,3.76,-4.20,-1.85,4.95,-1.03,-7.94,17.98,-13.96,26915
1.07,4.96,-9.60,-1.20,3.88,-0.10,-9.02,19.41,-15.24,26949
-5.02,7.62,-2.89,-1.09,2.77,-0.16,-9.32,20.48,-16.16,26983
-4.85,7.61,-4.96,-0.11,1.68,-0.26,-10.58,21.62,-16.52,27017
-3.03,8.33,-5.15,0.56,0.70,-0.48,-11.01,22.10,-16.60,27051
-1.28,9.95,-3.07,0.80,0.10,-0.66,-11.72,22.84,-17.45,27085
-1.23,9.53,-4.02,0.64,0.06,-0.61,-12.92,23.18,-18.21,27120
-0.71,7.67,-4.39,0.42,0.31,-0.51,-13.50,23.75,-19.35,27154
2.89,13.48,-1.65,0.44,0.79,-0.52,-13.68,24.06,-19.76,27188
-2.51,8.13,-5.61,-0.30,2.53,-1.02,-14.89,25.05,-20.61,27222
0.33,9.80,-3.12,-0.75,1.19,-0.01,-14.70,25.81,-20.58,27256
3.27,12.02,4.68,-0.98,2.15,-0.20,-14.86,26.47,-19.73,27291
2.76,13.41,-2.02,-0.01,3.82,-1.19,-15.67,26.48,-21.82,27325
2.18,11.35,2.01,-1.93,4.75,-1.64,-16.94,27.49,-22.30,27359
4.59,6.21,-3.03,-0.70,6.12,-2.70,-18.06,27.55,-24.88,27393
-2.29,7.07,-4.04,-0.41,6.36,-3.84,-20.99,26.85,-28.50,27427
-1.08,3.87,-4.87,-0.45,4.51,-3.20,-23.19,25.64,-31.31,27461
-0.53,6.16,-5.03,-0.45,2.82,-1.62,-24.45,24.47,-34.65,27496
2.16,6.64,-4.53,-0.57,2.00,-0.38,-24.41,25.02,-36.38,27530
2.27,6.20,-2.71,-0.33,1.25,1.04,-23.28,25.83,-37.55,27564
3.33,33.99,-4.32,4.09,1.19,2.76,-20.46,26.19,-40.91,27598
-0.17,3.64,1.88,-0.48,-0.54,0.64,-20.67,25.91,-40.38,27632
-2.32,13.90,0.92,0.68,0.13,0.40,-19.96,25.86,-40.95,27666
-0.94,8.72,-1.40,0.35,0.92,-0.08,-19.80,27.23,-41.96,27701
1.45,6.42,-5.92,0.11,0.13,0.36,-19.18,27.21,-43.16,27735
0.16,9.23,-2.63,0.26,0.17,0.29,-19.15,27.95,-43.42,27769
0.28,9.45,-4.00,0.25,0.28,0.05,-18.75,28.57,-44.83,27803
-0.78,9.04,-4.04,0.21,0.17,0.12,-18.40,28.46,-45.35,27837
-0.31,9.74,-2.47,0.19,0.17,-0.00,-18.24,29.07,-46.05,27872
-0.44,9.31,-3.47,-0.07,0.35,0.14,-17.90,29.25,-46.46,27906
-1.12,9.45,-1.87,-0.29,0.55,0.30,-17.10,30.28,-47.09,27940
-1.09,9.71,-2.39,-0.37,0.53,0.22,-16.33,31.16,-46.57,27974
-0.79,8.93,-3.45,-0.40,0.40,0.18,-15.97,32.53,-46.04,28008
-0.83,8.32,-4.19,-0.27,0.18,-0.01,-15.07,32.93,-46.65,28042
-0.77,8.18,-4.23,-0.05,-0.07,-0.21,-15.19,32.89,-46.86,28077
-0.22,8.36,-3.35,0.07,-0.25,-0.45,-16.54,32.32,-46.74,28111
-0.31,9.05,-3.20,0.05,-0.40,-0.52,-17.52,31.60,-46.64,28145
-0.51,9.16,-3.04,-0.06,-0.42,-0.55,-18.37,31.18,-46.33,28179
-0.67,9.40,-2.29,-0.31,-0.43,-0.48,-19.69,30.46,-46.04,28213
-1.08,9.81,-1.70,-0.46,-0.37,-0.38,-20.11,30.74,-44.72,28248
-0.46,9.84,-2.16,-0.63,-0.17,-0.29,-20.97,31.60,-44.18,28282
0.11,9.70,-2.42,-1.27,0.01,-0.11,-21.12,31.83,-42.97,28316
3.65,10.97,-3.43,-1.38,0.20,0.09,-20.81,32.89,-41.06,28350
4.96,12.00,-2.42,-1.28,0.15,0.81,-20.21,34.27,-38.83,28384
5.30,15.64,-4.47,-1.81,-0.47,0.33,-19.13,35.09,-35.94,28418
4.37,17.69,-7.64,-1.97,-0.53,-0.33,-18.65,35.60,-33.32,28453
0.95,13.14,-5.33,-3.34,-0.61,-2.03,-20.84,34.60,-25.87,28487
-4.68,12.23,-6.91,-1.14,-0.28,-3.19,-23.90,31.37,-23.30,28521
0.97,9.85,-2.23,-0.24,-0.60,-2.94,-26.26,26.98,-21.29,28555
-1.68,5.65,-2.32,-0.56,-0.10,-1.44,-26.82,22.68,-19.58,28589
-3.58,4.57,-1.46,-0.26,-0.35,-0.75,-26.12,19.32,-18.25,28624
-1.22,3.47,0.17,0.39,-0.19,-0.14,-24.82,16.37,-17.22,28658
-1.12,3.57,1.48,0.91,0.88,0.19,-23.63,15.02,-17.74,28692
-1.97,4.46,1.12,1.22,1.72,0.49,-22.42,13.14,-18.78,28726
-3.42,6.03,0.07,1.56,2.60,0.65,-21.05,11.12,-20.65,28760
-4.64,6.91,-0.54,1.61,2.88,0.91,-19.76,9.22,-22.36,28794
-3.62,6.83,-0.73,1.48,2.75,1.09,-18.68,7.72,-23.66,28829
-3.19,7.55,-0.90,1.54,2.78,1.16,-18.04,6.55,-23.74,28863
-2.92,8.00,-1.06,1.62,2.88,1.39,-17.39,5.33,-24.42,28897
-2.62,8.55,-3.72,1.70,2.93,1.76,-16.79,5.31,-25.12,28931
-2.68,9.76,-4.24,1.51,1.98,2.17,-16.30,5.09,-25.88,28965
-3.06,10.51,-5.15,1.29,0.85,2.51,-15.96,5.86,-25.01,29000
0.37,12.34,-4.56,1.03,-0.41,2.58,-16.30,7.04,-23.55,29034
0.63,11.49,-2.57,0.75,-0.85,2.02,-15.71,8.32,-22.27,29068
2.30,12.15,-1.98,0.70,-0.84,1.45,-15.54,9.47,-20.24,29102
1.32,11.44,-1.75,0.43,-0.69,0.25,-16.06,10.68,-20.07,29136
-17.71,23.45,-1.58,1.61,-1.84,-1.40,-16.57,10.77,-18.93,29170
12.45,11.69,2.07,-0.78,-3.55,0.05,-16.49,11.02,-15.21,29205
3.61,9.22,0.05,-0.56,0.30,-2.16,-17.57,10.44,-16.15,29239
5.80,7.88,-5.59,-0.19,-0.71,-0.81,-18.04,10.20,-15.13,29273
0.34,8.69,-5.46,0.43,-0.63,-0.64,-18.87,10.07,-15.55,29307
0.14,7.68,-5.66,-0.19,-0.43,-0.30,-18.97,10.00,-14.94,29341
-0.77,8.80,-3.82,-0.24,-0.31,-0.03,-19.69,10.07,-14.95,29375
-3.41,10.47,-1.81,-0.67,0.32,0.21,-20.01,10.70,-15.49,29410
-1.56,9.77,-3.33,-1.17,0.52,0.50,-20.05,11.49,-15.16,29444
-2.79,8.82,-3.90,-1.52,0.39,0.62,-20.02,11.87,-16.53,29478
-0.47,7.37,-4.91,-1.52,0.03,0.68,-19.64,12.39,-15.39,29512
0.02,7.39,-6.16,-1.09,-0.33,0.35,-19.56,13.36,-14.73,29546
-0.61,7.22,-5.67,-0.80,-0.53,0.03,-19.66,14.25,-14.02,29581
-0.91,8.06,-3.83,-0.39,-0.83,-0.52,-20.10,13.81,-13.34,29615
-0.11,8.17,-4.78,-0.25,-1.01,-0.93,-20.52,13.80,-13.21,29649
0.07,9.00,-4.94,-0.04,-1.62,-0.55,-20.81,13.74,-11.56,29683
0.38,10.04,-1.16,-0.50,-1.72,-0.25,-20.90,13.50,-9.82,29717
-0.41,10.10,-3.13,-0.30,-1.52,0.08,-21.03,14.06,-8.52,29751
-1.80,10.34,-1.93,-1.16,-1.46,0.70,-20.34,14.79,-6.93,29786
2.85,11.34,-1.09,-1.64,-1.19,1.03,-19.20,16.08,-4.55,29820
5.18,12.89,0.30,-1.53,-1.04,1.44,-18.21,16.44,-2.88,29854
7.67,13.85,-2.95,-2.38,-2.50,1.21,-16.65,17.13,-0.18,29888
13.93,16.38,-6.55,-2.16,-2.12,1.26,-13.15,17.67,3.96,29922
10.37,11.35,-9.55,-1.73,0.03,-0.23,-11.75,17.77,6.34,29957
-13.45,14.08,-9.49,-3.28,-1.24,-2.91,-13.74,16.38,9.66,29991
4.89,9.76,-5.15,-1.82,-1.58,-1.36,-12.95,14.67,11.59,30025
-1.27,8.34,-3.28,-1.99,0.17,-1.22,-12.95,13.84,12.82,30059
-2.87,7.10,-3.36,-1.29,1.80,-1.45,-15.42,12.63,13.83,30093
-3.75,7.01,-3.11,-0.97,2.64,-1.79,-18.88,11.44,13.01,30127
-3.79,5.30,-3.27,-0.74,3.09,-1.92,-22.71,10.86,11.88,30162
-4.28,4.96,-4.35,-0.79,3.05,-1.73,-27.80,9.49,9.13,30196
-5.97,5.57,-4.45,-0.82,2.63,-1.40,-30.93,8.43,6.36,30230
-5.76,5.74,-2.62,-0.74,2.24,-0.86,-33.97,7.56,2.98,30264
-6.36,5.71,-1.64,-0.73,2.58,-0.42,-35.85,6.93,-0.85,30298
-8.10,6.53,-0.85,-0.67,3.39,0.12,-37.17,6.68,-4.91,30333
-6.95,7.28,-0.47,-0.46,3.86,0.32,-38.10,7.44,-11.59,30367
-8.31,7.89,-0.44,-0.47,4.27,0.34,-37.42,7.57,-17.70,30401
-8.95,7.17,-0.89,-0.55,4.20,0.33,-36.06,8.07,-23.19,30435
-9.27,6.34,-1.58,-0.43,3.65,0.19,-33.31,8.16,-28.44,30469
-8.97,5.49,-2.26,-0.38,3.25,0.07,-30.65,7.53,-31.66,30503
-8.95,4.82,-1.90,0.00,3.33,-0.18,-27.36,6.30,-35.02,30538
-6.13,3.41,-2.07,0.57,3.19,-0.22,-24.16,5.35,-37.62,30572
-7.56,3.55,-3.04,0.86,3.00,0.05,-20.55,3.64,-39.59,30606
-8.80,3.77,-3.84,1.03,1.52,0.88,-17.14,1.90,-40.41,30640
-7.28,4.76,-2.37,1.11,-0.10,1.52,-15.24,1.20,-40.70,30674
-4.84,6.77,-1.95,1.21,-1.10,2.06,-14.41,-0.37,-39.42,30708
-3.60,8.51,-1.48,1.40,-1.20,2.19,-13.39,-1.75,-39.26,30743
-4.47,9.79,-2.30,1.30,-1.35,2.20,-12.67,-3.39,-38.80,30777
-3.78,10.80,-3.60,0.82,-2.29,2.32,-13.72,-4.76,-37.21,30811
-3.35,11.65,-3.22,0.28,-3.25,2.08,-14.31,-5.31,-35.78,30845
-2.75,12.16,-2.11,-0.11,-4.12,2.07,-16.52,-5.70,-32.94,30879
18.03,4.81,7.68,-0.52,-4.84,3.63,-19.04,-5.67,-28.53,30914
1.71,10.29,-1.53,-0.41,-4.04,1.26,-21.06,-5.66,-26.05,30948
-0.05,6.88,1.18,-0.53,-4.29,1.43,-23.11,-4.14,-20.62,30982
2.93,9.59,4.45,-1.14,-1.54,0.26,-24.00,-3.90,-18.85,31016
4.65,9.91,3.29,-1.44,0.92,-0.29,-25.05,-4.02,-18.21,31050
2.19,9.20,-3.32,-1.66,2.84,-0.91,-27.07,-3.83,-19.85,31084
2.17,10.96,-4.51,-1.90,3.48,-0.21,-29.00,-3.04,-22.64,31119
9.01,12.39,-3.98,-2.14,4.59,-0.05,-29.51,-0.64,-25.34,31153
4.65,9.87,-7.16,-2.33,6.55,-0.76,-29.33,2.62,-32.05,31187
8.96,8.37,-12.47,-1.60,6.83,-1.21,-27.58,4.91,-37.83,31221
3.82,6.54,-16.66,-1.51,6.39,-0.71,-23.24,8.97,-42.05,31255
-0.08,10.77,-14.08,-0.80,6.13,-0.88,-18.37,11.17,-44.83,31290
-1.05,6.52,-11.82,-0.43,5.09,-0.54,-13.30,13.23,-45.88,31324
-0.53,7.64,-11.72,-0.17,3.91,0.21,-7.41,14.09,-45.45,31358
0.00,8.53,-7.60,0.03,3.43,0.47,-2.89,14.54,-44.55,31392
0.80,9.85,-6.10,-0.01,3.32,0.32,1.65,14.92,-42.56,31426
-6.84,11.15,-11.53,0.09,4.45,-1.95,5.82,14.19,-40.19,31460
-9.21,4.61,-15.18,0.10,4.03,-3.03,7.82,14.15,-37.43,31495
-8.45,2.82,-10.72,-0.21,3.42,-2.88,8.07,14.28,-35.56,31529
-2.82,7.19,-1.29,-0.30,3.96,-2.28,8.73,14.81,-34.64,31563
-0.69,11.09,-0.25,-0.65,6.80,-3.06,9.87,15.48,-30.56,31597
-2.72,6.22,-5.73,-1.63,8.81,-3.79,10.03,16.62,-24.44,31631
-1.46,5.95,-10.97,-1.54,9.17,-3.77,9.06,18.11,-19.92,31666
-4.47,6.27,-6.21,-1.76,8.92,-3.67,6.46,18.58,-15.20,31700
1.73,9.17,-4.89,-1.85,8.79,-3.65,2.03,19.32,-12.72,31734
8.23,9.98,-5.15,-2.80,9.40,-3.59,-2.79,18.56,-11.01,31768
15.61,13.69,-4.40,-3.21,9.62,-3.25,-8.23,17.49,-9.40,31802
21.56,11.16,-9.43,-4.40,12.09,-3.05,-13.04,16.60,-9.82,31836
21.22,8.18,-22.38,-3.65,13.74,-2.83,-16.85,15.89,-13.56,31871
18.72,2.20,-25.15,-2.52,13.20,-2.98,-20.34,13.84,-20.68,31905
4.81,4.19,-22.65,-1.75,9.74,-2.31,-19.94,12.48,-26.05,31939
0.66,8.13,-17.43,-1.05,5.33,-1.34,-17.32,10.42,-30.97,31973
0.78,6.91,-10.44,-1.46,3.61,-1.35,-15.33,8.71,-31.77,32007
-3.21,6.98,-9.33,-1.09,3.54,-1.95,-13.50,6.45,-33.97,32041
-10.33,-0.44,-4.95,-1.45,3.39,-1.90,-11.37,3.83,-35.62,32076
3.44,-1.36,0.58,-1.16,2.67,-1.01,-9.06,2.97,-37.30,32110
32.59,35.60,-19.42,2.34,3.77,2.71,-5.39,1.65,-38.47,32144
2.70,23.57,-14.34,0.21,4.23,-0.04,1.08,-1.49,-39.75,32178
0.15,12.21,-5.04,-0.90,2.60,0.36,4.00,-4.38,-39.97,32212
-3.72,6.47,-1.27,-0.65,2.57,1.11,6.69,-8.43,-40.68,32247
-3.81,8.20,-2.32,-0.01,2.53,1.57,8.67,-11.87,-41.68,32281
0.13,7.10,-3.14,0.35,3.61,-0.23,9.84,-15.17,-41.60,32315
-2.90,7.17,-6.72,0.61,2.54,-0.25,11.81,-18.42,-42.24,32349
0.31,10.50,-6.12,0.51,2.76,-0.09,13.20,-20.10,-42.18,32383
-3.45,8.30,-8.39,0.29,2.02,-0.43,14.56,-22.58,-41.95,32417
-0.77,7.87,-6.32,0.43,1.41,-0.08,15.36,-24.07,-41.86,32452
-2.51,8.31,-5.62,0.17,0.92,-0.35,15.45,-25.11,-41.65,32486
-1.28,9.76,-5.83,0.45,0.30,0.17,14.25,-26.88,-42.27,32520
-0.28,5.47,-4.53,0.46,0.05,0.07,13.18,-28.09,-42.01,32554
-1.53,9.46,-4.64,0.67,-0.09,0.66,11.72,-29.33,-42.40,32588
-1.57,8.67,-2.12,0.62,-0.02,0.53,8.96,-30.33,-41.63,32623
-0.80,9.50,-1.75,0.35,0.34,0.16,7.88,-29.99,-41.96,32657
1.92,8.55,-2.48,0.14,0.52,-0.05,7.75,-30.05,-41.95,32691
-0.92,9.15,-4.14,0.46,0.93,-0.23,7.85,-29.71,-41.26,32725
2.56,9.86,-4.78,0.27,1.43,-0.28,8.74,-29.35,-41.08,32759
0.93,8.33,-4.63,0.23,2.08,-0.59,10.99,-28.78,-39.58,32793
0.04,8.90,-5.36,0.29,2.09,-0.64,12.89,-28.65,-39.16,32828
1.75,9.17,-5.82,0.50,2.24,-0.70,15.49,-28.73,-37.42,32862
4.30,9.14,-3.81,0.12,2.81,-0.49,17.95,-29.28,-35.69,32896
6.77,8.68,-5.09,-0.07,3.63,-0.41,20.23,-29.33,-32.72,32930
6.38,7.51,-5.43,-0.18,5.65,-0.45,24.04,-30.30,-26.45,32964
5.30,5.74,-10.73,-0.37,4.99,0.55,25.72,-31.34,-21.95,32999
6.51,7.10,-0.72,-0.95,2.53,2.53,24.42,-34.52,-18.63,33033
2.56,7.76,-7.06,0.69,4.12,2.82,20.39,-38.99,-13.87,33067
-8.41,13.31,-21.33,2.30,5.09,0.85,17.28,-41.73,-8.05,33101
-10.40,18.16,-12.14,1.14,4.46,-1.60,14.89,-41.92,-3.16,33135
-10.90,8.77,-6.47,0.23,5.29,-3.38,14.56,-41.99,-0.56,33169
-11.68,9.32,-9.29,1.10,4.14,-3.60,15.87,-40.70,3.33,33204
-10.11,4.19,-5.38,1.24,3.86,-4.49,18.15,-37.91,7.19,33238
10.10,6.62,12.00,1.45,-0.12,-4.17,20.27,-35.47,10.42,33272
15.34,17.24,0.16,0.81,-0.17,-0.64,23.31,-35.31,12.16,33306
1.71,11.61,0.51,1.32,-0.07,-1.79,26.50,-34.11,13.53,33340
13.03,10.51,0.34,0.67,0.16,-0.70,28.66,-33.21,13.69,33375
7.76,11.35,-3.18,0.64,0.73,-0.30,29.45,-33.48,15.40,33409
6.03,9.89,0.25,0.37,0.72,0.04,29.87,-33.51,16.98,33443
3.08,10.88,-0.16,0.15,0.92,0.30,29.30,-33.79,18.43,33477
0.75,9.69,-0.84,-0.34,0.95,0.55,28.40,-34.99,19.47,33511
-1.62,9.19,-5.53,-0.05,1.30,0.03,27.40,-35.71,19.85,33545
0.71,7.83,-5.57,-0.23,0.74,0.17,26.91,-36.70,20.02,33580
0.39,8.24,-5.44,-0.02,0.65,-0.36,27.20,-37.01,19.98,33614
1.03,8.59,-4.01,-0.06,0.47,-0.48,27.77,-36.36,21.21,33648
1.33,9.39,-2.73,-0.15,0.39,-0.49,28.53,-36.28,21.38,33682
2.44,9.20,-3.14,-0.36,0.41,-0.45,28.52,-35.95,20.67,33716
3.47,9.35,-2.65,-0.47,0.50,-0.32,29.10,-35.72,21.21,33750
2.93,9.50,-1.78,-0.53,0.69,-0.17,28.28,-35.21,21.27,33785
2.78,9.92,-1.10,-0.89,0.68,0.01,27.99,-35.72,21.18,33819
3.89,10.53,-0.76,-1.19,1.22,0.12,26.28,-36.01,20.87,33853
-4.19,12.62,-3.02,-1.15,2.57,-0.09,22.81,-36.82,21.60,33887
6.67,5.38,-9.55,0.30,6.05,-0.79,17.64,-35.82,23.50,33921
6.08,8.10,-11.06,0.98,8.30,-2.07,6.69,-32.24,26.83,33956
-0.55,2.39,-21.20,1.92,5.55,-1.78,-1.68,-27.76,27.32,33990
0.02,13.49,-9.10,1.31,-0.34,0.05,-2.19,-24.41,27.52,34024
2.68,5.36,-5.36,0.11,-1.33,0.16,1.13,-23.40,27.13,34058
0.66,9.34,-6.00,1.19,-0.79,0.07,3.77,-20.78,26.82,34092
0.73,8.83,-0.84,0.91,-0.39,0.33,5.95,-18.69,27.00,34126
2.65,8.53,-0.01,1.39,1.54,0.32,5.26,-17.14,26.75,34161
1.71,9.22,0.72,1.88,4.27,0.01,0.42,-14.94,26.57,34195
-0.43,9.24,-0.32,1.71,5.37,0.14,-9.09,-11.62,25.62,34229
-5.50,8.74,-2.80,1.01,4.14,0.51,-15.87,-10.25,22.52,34263
31.20,38.02,-3.76,1.46,1.46,0.53,-19.92,-9.09,21.27,34297
-26.93,8.59,4.50,0.77,2.36,-1.81,-23.90,-9.19,18.33,34332
-21.87,11.14,-9.66,1.23,0.65,-2.09,-25.80,-10.17,16.06,34366
4.80,14.14,-9.63,-1.43,-1.37,-1.22,-23.87,-10.82,18.08,34400
10.19,10.31,-1.40,1.05,-1.59,-0.51,-22.76,-10.79,17.98,34434
3.07,10.26,-3.00,0.29,-0.62,-0.32,-22.33,-11.14,18.36,34468
1.53,9.56,-3.71,0.12,-0.52,-0.11,-23.18,-10.54,18.05,34502
0.92,9.75,-2.51,-0.02,-0.32,0.03,-23.15,-9.59,17.67,34537
2.42,9.31,-3.35,-0.23,-0.16,0.18,-24.10,-9.18,16.52,34571
3.91,9.69,-3.65,-0.22,-0.01,0.42,-25.10,-7.89,15.05,34605
3.40,9.82,-2.06,-0.52,0.23,0.66,-26.29,-6.56,12.82,34639
4.74,9.30,-3.95,-0.60,0.31,0.70,-27.71,-4.25,11.74,34673
5.11,7.75,-4.03,-0.73,0.39,0.87,-28.91,-2.12,10.07,34708
3.18,9.06,-3.88,-0.45,0.93,0.49,-29.79,0.03,7.98,34742
3.17,9.15,-4.45,-0.85,1.20,0.73,-30.99,3.49,5.36,34776
3.01,7.89,-5.08,-0.55,1.81,0.20,-31.76,6.33,3.67,34810
-0.95,8.98,-5.51,-0.41,1.80,0.33,-32.67,8.37,0.66,34844
-0.73,7.14,-5.15,-0.14,0.98,0.35,-32.68,10.42,-1.40,34878
1.20,9.15,-4.53,0.08,-0.34,0.33,-31.72,12.77,-0.79,34913
2.57,9.74,-3.01,-0.06,0.30,-0.56,-31.48,14.25,-0.75,34947
2.93,8.97,-3.87,-0.07,1.00,-0.70,-31.82,14.56,-2.06,34981
4.46,6.29,-5.17,-0.20,1.46,-0.95,-32.97,14.44,-3.35,35015
0.47,9.46,-5.21,-0.04,1.71,-1.19,-34.07,15.36,-6.24,35049
-1.38,7.15,-4.36,-0.41,1.31,-1.18,-35.25,14.32,-7.25,35083
0.84,9.61,-2.54,-0.23,1.38,-1.53,-36.90,13.71,-9.27,35118
1.85,9.64,-1.20,-0.29,1.39,-1.45,-37.55,13.45,-11.11,35152
3.84,9.23,0.18,-0.36,1.92,-1.24,-38.51,13.23,-12.29,35186
0.84,9.24,-1.48,-0.56,2.80,-1.09,-39.61,13.50,-16.43,35220
1.16,9.07,-4.25,-0.25,2.69,-0.90,-40.02,14.24,-19.18,35254
2.91,8.82,-6.11,-0.10,1.85,-0.53,-40.16,14.79,-21.69,35289
0.87,7.02,-5.09,-0.46,1.93,-0.58,-39.90,16.69,-23.85,35323
0.53,8.71,-2.80,-0.36,2.32,-0.64,-39.59,17.55,-25.78,35357
0.57,8.73,-7.15,-0.47,2.48,-0.64,-38.72,19.29,-29.01,35391
0.11,8.79,-3.02,-0.28,1.86,-0.79,-39.13,20.21,-29.74,35425
-0.41,8.33,-1.63,-0.38,2.72,-1.17,-38.79,20.94,-32.05,35459
-0.13,9.45,-8.52,-0.53,2.66,-1.00,-37.96,21.28,-35.82,35494
-0.44,10.68,-8.54,-0.03,1.46,-0.64,-37.61,22.04,-37.18,35528
1.58,10.20,2.21,0.06,0.86,-0.40,-37.59,22.81,-36.89,35562
2.99,11.26,4.65,-0.34,2.30,-0.48,-36.70,23.43,-38.89,35596
3.21,11.14,0.47,-0.87,3.65,-0.83,-35.30,24.04,-41.46,35630
2.90,7.48,-4.13,-0.89,4.31,-0.83,-32.24,25.84,-44.45,35665
2.55,7.51,-5.28,-0.72,4.16,-0.33,-29.07,26.75,-46.67,35699
4.16,13.39,-4.90,-0.73,4.00,-0.08,-25.17,28.60,-49.01,35733
1.01,8.67,-3.32,0.04,2.87,0.17,-20.72,30.04,-50.79,35767
5.54,10.22,-0.45,-0.52,2.81,0.42,-17.32,31.03,-51.71,35801
2.09,11.02,1.96,-0.41,4.32,-0.03,-11.87,31.15,-52.54,35835
2.47,9.65,-3.80,-0.50,4.67,0.01,-6.59,31.64,-53.29,35870
1.29,10.15,-5.70,-0.20,4.30,0.08,-1.39,31.76,-52.94,35904
0.93,9.27,-6.08,0.16,3.05,0.27,4.43,30.44,-53.20,35938
1.39,9.45,-7.78,0.32,1.53,0.82,8.46,28.44,-53.35,35972
1.37,8.44,-3.67,0.29,0.41,1.13,11.21,26.89,-53.79,36006
1.17,7.75,-0.80,0.28,0.27,1.04,14.07,24.32,-54.62,36041
0.06,9.31,0.07,0.70,0.34,0.87,16.54,21.22,-56.30,36075
-2.41,9.90,1.03,0.96,0.04,0.52,18.31,17.80,-58.04,36109
-0.45,10.87,2.56,0.86,-0.51,0.46,18.56,15.43,-58.81,36143
-4.95,12.62,0.29,1.21,-0.52,-0.11,18.82,12.12,-60.16,36177
-0.67,8.81,-1.81,0.04,-0.76,-0.30,16.79,11.02,-61.06,36211
-0.44,9.12,-3.02,0.37,-1.07,-0.20,15.54,9.75,-62.00,36246
1.57,9.86,-4.72,0.81,-0.96,-0.07,13.52,8.13,-63.02,36280
-0.41,9.79,-3.56,0.64,-0.97,0.84,12.76,6.56,-63.26,36314
-2.59,9.55,-2.23,0.25,-1.38,0.94,11.53,4.52,-64.06,36348
-1.40,9.77,-2.28,0.55,-0.70,0.26,9.13,2.51,-65.01,36382
-2.32,9.24,-3.25,0.63,-0.36,-0.54,8.59,1.33,-65.65,36416
-1.34,9.80,-1.17,0.72,-0.54,-0.71,7.25,0.58,-65.59,36451
-0.95,10.36,-1.04,0.60,-0.69,-0.52,5.67,-0.57,-65.76,36485
-0.75,8.53,-2.72,0.24,-1.01,-0.34,3.70,-0.56,-65.64,36519
-1.04,7.67,-8.85,0.34,-1.05,-0.29,1.94,-0.96,-65.73,36553
0.17,8.24,-7.38,0.30,-0.73,-0.79,-0.10,-1.11,-65.76,36587
1.73,10.54,-4.73,0.36,-1.22,-0.98,-2.46,-1.65,-66.15,36622
4.81,11.39,-8.42,0.65,-2.22,-0.55,-6.05,-3.68,-66.00,36656
3.53,14.70,-7.98,0.91,-2.69,-1.23,-10.35,-5.80,-64.78,36690
5.45,13.94,-9.66,1.29,-3.56,-2.28,-16.92,-10.73,-61.25,36724
1.48,4.60,-17.48,0.07,-5.07,-2.15,-23.78,-15.46,-56.24,36758
4.76,14.61,-16.26,-0.01,-10.68,0.00,-32.67,-18.23,-44.10,36792
7.49,12.22,8.73,-3.61,-7.93,-0.96,-39.87,-18.69,-30.33,36827
8.27,4.40,6.78,-0.46,-1.44,-1.33,-40.15,-21.53,-24.26,36861
1.73,2.09,1.78,1.87,4.77,-1.98,-37.90,-25.43,-26.50,36895
0.31,2.13,-1.66,2.00,5.41,-1.16,-36.28,-28.37,-29.44,36929
-5.23,3.24,-2.21,1.38,3.24,0.60,-34.51,-29.76,-31.12,36963
-4.38,3.32,-0.83,0.58,0.48,2.21,-36.69,-28.18,-30.78,36998
-2.07,3.29,0.36,0.25,-0.68,3.19,-39.51,-24.96,-28.35,37032
1.06,4.59,0.89,0.19,-0.55,3.98,-42.97,-20.32,-25.49,37066
-2.47,9.97,2.06,0.48,1.39,3.96,-45.56,-13.86,-24.79,37100
-1.94,11.64,-1.16,0.32,2.32,3.85,-47.00,-8.56,-26.83,37134
-12.92,3.68,-2.87,-3.77,-1.60,2.53,-47.71,-1.61,-23.93,37168
0.73,25.26,-24.14,2.16,0.91,2.41,-47.50,2.88,-24.58,37203
-19.28,3.76,1.38,-0.67,0.67,-2.11,-48.17,2.47,-24.03,37237
4.23,10.90,-4.44,0.49,-0.14,0.38,-48.77,3.55,-22.60,37271
-2.46,11.28,-3.93,0.35,-0.08,0.13,-48.60,4.97,-21.86,37305
0.37,8.62,-2.68,-0.11,-0.26,0.25,-45.07,6.24,-21.44,37339
-2.42,9.10,-3.35,-0.01,-0.16,0.29,-47.66,7.67,-20.62,37374
-1.61,9.19,-3.46,-0.40,-0.25,0.47,-48.00,9.81,-20.45,37408
-0.69,9.30,-3.69,-0.61,-0.52,0.60,-47.33,11.56,-18.69,37442
-0.78,8.77,-2.92,-0.70,-0.62,0.51,-46.77,13.49,-17.51,37476
-0.53,8.80,-2.90,-0.67,-0.68,0.38,-45.95,14.81,-16.22,37510
0.51,8.82,-3.84,-0.55,-0.72,0.17,-45.03,16.25,-14.07,37544
-0.44,8.64,-2.69,-0.37,-0.73,0.01,-44.99,16.82,-11.98,37579
-0.71,10.08,-2.17,-0.27,-0.71,-0.22,-44.99,16.95,-10.55,37613
-0.59,10.35,-1.39,-0.60,-0.76,-0.17,-44.93,17.00,-9.22,37647
-1.54,10.80,-1.06,-1.03,-0.92,-0.10,-44.08,17.28,-7.02,37681
-0.29,10.56,-3.40,-1.29,-1.65,-0.03,-43.17,17.19,-4.18,37715
3.91,9.11,-3.60,-1.01,-1.31,-0.08,-42.62,18.17,-0.42,37750
4.84,10.84,-6.88,-1.24,-1.82,0.06,-41.32,18.58,2.27,37784
5.62,10.73,-7.47,-1.40,-2.72,0.52,-37.93,19.77,8.10,37818
5.23,8.05,-7.90,-0.90,-4.33,0.83,-34.20,21.54,13.99,37852
2.09,8.77,-3.71,-0.87,-4.73,0.96,-25.78,23.55,21.02,37886
-2.62,7.56,-6.61,-0.61,-5.61,0.23,-16.53,24.39,26.60,37920
4.27,6.31,-0.74,0.23,-3.54,-0.02,-8.40,26.86,27.49,37955
3.30,6.11,0.38,0.49,-0.82,-0.22,-3.08,31.31,26.98,37989
1.17,7.56,0.11,1.14,1.14,-0.44,-2.57,34.83,25.15,38023
1.07,7.72,-0.33,1.39,2.09,-0.28,-2.92,39.62,20.56,38057
0.33,8.31,-0.95,1.30,2.51,0.17,-3.38,43.00,16.88,38091
-0.28,9.37,-1.49,1.13,2.26,0.71,-2.06,45.86,13.05,38125
0.18,9.70,-1.25,1.06,1.81,1.03,2.25,48.47,8.94,38160
1.37,10.84,-1.36,1.22,1.26,1.29,6.61,49.39,5.55,38194
1.81,11.46,-1.84,1.20,0.94,1.29,11.82,50.22,2.22,38228
1.15,11.70,-1.36,1.07,0.52,1.09,17.61,48.98,-1.43,38262
1.43,11.12,-2.25,0.55,-0.35,1.00,23.38,47.57,-4.59,38296
1.13,11.16,-1.88,0.13,-1.11,0.89,28.68,44.84,-6.83,38331
2.04,10.33,-1.33,-0.18,-1.83,0.74,32.99,42.69,-9.73,38365
2.38,9.68,-1.25,-0.30,-1.82,0.45,36.33,41.25,-13.01,38399
2.05,9.57,-1.30,-0.32,-1.51,0.18,38.47,37.28,-16.54,38433
1.47,8.98,-1.34,-0.36,-1.06,-0.00,39.74,35.53,-18.34,38467
1.23,8.77,-1.65,-0.40,-0.74,-0.06,40.63,34.13,-20.77,38501
1.28,8.72,-2.31,-0.47,-0.52,-0.04,41.63,33.13,-23.05,38536
1.37,8.53,-2.28,-0.57,-0.19,-0.08,41.80,31.32,-24.32,38570
1.46,8.88,-2.58,-0.51,0.06,-0.20,42.20,30.30,-23.82,38604
1.76,9.00,-2.92,-0.44,0.41,-0.36,43.06,29.29,-23.28,38638
1.90,9.43,-2.98,-0.41,0.61,-0.54,43.35,28.28,-23.46,38672
2.00,9.86,-3.14,-0.39,0.61,-0.71,44.04,27.99,-23.36,38707
2.33,10.28,-3.52,-0.52,0.55,-0.95,43.58,29.00,-23.14,38741
2.38,9.98,-3.50,-0.60,0.27,-1.13,43.28,29.00,-22.41,38775
2.46,9.71,-3.17,-0.59,0.16,-1.21,41.70,29.47,-22.08,38809
1.69,7.34,-2.91,-0.98,-0.23,-1.07,40.70,29.86,-23.02,38843
2.77,9.04,-2.79,-0.97,-0.14,-0.91,40.13,30.43,-23.53,38877
2.15,8.42,-2.73,-0.38,0.41,-1.03,39.37,30.27,-23.78,38912
1.63,8.14,-3.02,-0.09,0.95,-0.96,39.18,30.04,-23.34,38946
1.31,8.08,-3.12,-0.00,1.02,-0.75,39.14,28.91,-24.07,38980
1.15,8.11,-3.55,0.12,0.79,-0.38,39.70,27.83,-23.68,39014
1.00,8.62,-3.24,0.27,0.50,-0.03,41.49,25.45,-24.57,39048
1.51,8.71,-3.05,0.36,0.43,0.19,42.62,22.83,-25.49,39083
1.60,8.76,-2.71,0.45,0.35,0.37,44.05,19.92,-26.16,39117
2.12,8.88,-2.28,0.55,0.37,0.52,45.44,16.44,-27.33,39151
2.34,8.78,-2.12,0.65,0.66,0.48,47.08,12.31,-27.39,39185
1.97,9.35,-1.98,0.85,1.30,0.36,48.33,9.28,-26.06,39219
2.04,9.26,-1.78,0.92,1.66,0.31,49.84,4.74,-23.91,39253
1.80,9.73,-1.99,0.90,2.04,0.20,50.53,1.05,-22.14,39288
1.46,9.60,-1.65,0.86,2.51,-0.07,51.45,-2.88,-18.52,39322
0.42,9.41,-2.05,0.75,2.67,-0.26,50.88,-5.60,-14.03,39356
-0.96,9.08,-2.87,0.53,2.26,-0.50,50.60,-7.60,-10.32,39390
1.85,10.51,-2.78,0.44,1.37,-0.57,49.90,-9.73,-7.83,39424
-9.10,13.97,-1.61,0.21,1.83,-1.38,48.70,-10.51,-4.97,39458
-1.22,9.45,-1.67,-0.04,-0.64,-1.10,48.64,-10.93,-6.28,39493
2.79,9.63,-0.56,0.16,-0.64,-0.33,49.27,-11.81,-7.35,39527
0.53,9.91,-1.49,0.10,-0.36,-0.23,48.70,-13.61,-7.54,39561
1.78,9.72,-2.35,-0.05,-0.46,-0.07,47.90,-16.27,-8.97,39595
