ax,ay,az,gx,gy,gz,mx,my,mz,timestamp
2.02,9.20,-3.48,0.34,0.06,-0.09,-23.55,-2.29,-50.41,39688
2.13,9.07,-3.67,0.29,0.10,-0.25,-23.34,-2.34,-50.45,39722
2.34,9.28,-3.51,-0.02,0.26,-0.31,-23.14,-2.66,-50.03,39756
2.51,9.27,-3.19,-0.30,0.40,-0.36,-22.65,-3.01,-50.66,39791
2.11,9.38,-2.56,-0.91,0.44,-0.39,-21.54,-2.37,-50.69,39825
2.35,9.28,-1.58,-1.35,0.35,-0.24,-20.49,-1.89,-50.66,39859
3.09,9.06,-1.55,-1.46,0.36,-0.33,-19.91,0.28,-51.05,39893
2.97,8.01,-1.14,-0.69,0.22,-0.24,-19.18,1.15,-51.26,39927
3.06,9.22,-0.94,-0.58,0.35,0.01,-18.34,1.70,-51.30,39961
2.23,9.54,-1.17,-0.55,0.51,-0.01,-18.05,2.24,-51.33,39996
1.53,10.19,-1.42,-0.64,0.76,-0.13,-16.50,3.42,-51.52,40030
1.37,11.24,-1.42,-0.61,0.75,-0.24,-15.67,3.83,-51.67,40064
0.14,11.33,-1.05,-0.52,0.50,-0.57,-14.26,4.41,-51.86,40098
-0.57,10.97,-1.90,-0.44,0.15,-1.04,-14.18,4.98,-51.56,40132
-0.65,10.07,-1.92,-0.23,-0.30,-1.37,-14.67,4.91,-52.08,40166
-0.30,9.74,-1.85,-0.08,-0.47,-1.85,-15.46,4.24,-51.05,40201
0.90,8.23,-1.54,-0.12,-0.41,-2.23,-17.17,3.62,-51.20,40235
0.96,8.48,-1.17,-0.02,-0.46,-2.36,-18.09,2.63,-50.76,40269
0.66,9.25,-0.03,-0.09,-0.19,-2.35,-19.19,1.80,-50.64,40303
0.36,8.07,1.22,0.04,0.12,-2.33,-19.79,0.73,-50.61,40337
-3.08,6.81,1.45,0.50,0.95,-2.48,-18.94,-1.62,-51.64,40372
-17.31,13.87,2.46,2.43,-0.26,-1.60,-18.46,-3.55,-52.59,40406
1.16,8.70,5.73,1.47,-1.27,-1.92,-20.65,-5.92,-50.89,40440
-1.69,10.82,3.46,2.21,-0.71,-1.67,-21.46,-9.30,-51.56,40474
1.40,14.26,2.10,1.56,-0.70,-1.30,-22.03,-11.87,-50.26,40508
-0.77,15.05,1.28,0.84,-0.83,-0.65,-22.29,-13.33,-49.93,40542
-5.36,10.14,0.34,0.52,-2.01,0.39,-23.43,-13.27,-47.69,40577
-3.86,6.62,-1.60,0.28,-1.61,-0.34,-25.05,-13.62,-47.47,40611
-4.85,7.53,-0.98,0.13,-1.65,-0.83,-26.43,-14.06,-45.53,40645
-1.68,8.40,-1.84,-0.34,-1.39,-1.12,-26.57,-15.13,-44.84,40679
-6.81,6.15,-2.18,-0.84,-1.19,-1.06,-27.00,-15.24,-44.20,40713
-8.65,6.90,-2.40,-1.46,-0.64,-0.80,-27.29,-14.85,-44.10,40748
-7.48,7.44,0.31,-2.08,0.07,-0.70,-26.92,-13.90,-44.45,40782
-7.46,8.93,1.20,-2.31,1.00,-0.53,-25.64,-11.91,-46.24,40816
-8.75,9.57,0.61,-2.57,1.33,-0.12,-24.09,-9.53,-48.16,40850
-9.90,8.25,-1.00,-3.09,2.33,-0.08,-21.82,-6.93,-50.37,40884
-7.28,7.66,0.59,-3.09,1.67,0.63,-18.99,-3.14,-51.53,40918
-3.59,9.34,-1.63,-2.55,2.07,0.97,-16.41,0.67,-51.83,40953
-5.84,7.91,-2.49,-2.49,3.02,0.35,-12.79,2.92,-52.53,40987
-5.81,7.12,-3.23,-2.50,3.65,0.18,-7.89,6.07,-52.76,41021
-5.74,5.65,-3.01,-1.80,2.94,0.35,-3.76,8.64,-51.83,41055
-4.16,6.85,-2.96,-0.90,2.20,0.76,-0.72,10.35,-50.69,41089
-5.34,6.28,-2.13,-0.25,1.69,1.09,2.98,10.65,-51.36,41124
-4.32,5.71,-3.03,0.06,1.27,1.36,5.16,10.70,-50.53,41158
-5.02,4.97,-2.13,0.19,1.53,1.43,8.42,10.11,-49.87,41192
-5.34,5.41,-1.62,0.63,1.12,1.59,10.13,9.19,-49.77,41226
-4.85,6.82,-2.38,0.80,0.36,1.85,12.57,6.96,-49.20,41260
-5.70,7.29,-1.42,1.38,-0.11,1.73,13.61,5.26,-50.06,41294
-2.71,9.72,-0.91,1.28,-0.41,1.33,13.14,2.76,-50.12,41329
-4.06,9.54,0.70,1.24,-0.38,0.90,13.45,1.13,-50.10,41363
-3.52,8.61,2.05,1.15,-0.57,0.65,13.11,-0.47,-50.98,41397
-5.50,8.21,1.04,1.19,-0.78,0.39,12.80,-1.65,-51.70,41431
-4.28,8.31,0.72,1.22,-1.29,0.46,11.22,-2.91,-52.44,41465
-3.57,7.57,-0.01,1.27,-1.40,0.20,10.08,-4.40,-53.20,41500
6.60,5.44,-1.22,0.87,-2.42,0.11,7.97,-5.89,-53.05,41534
2.09,10.36,-3.36,0.99,-0.38,0.14,7.51,-7.35,-53.61,41568
1.05,12.73,-1.67,0.98,0.14,-0.90,7.28,-8.33,-53.62,41602
-4.08,8.24,0.23,1.01,-0.46,-0.12,8.35,-9.44,-53.45,41636
-8.19,10.66,-4.74,0.81,-0.13,0.39,8.90,-10.20,-53.52,41670
-7.39,6.99,-2.56,0.33,-0.90,0.46,8.83,-11.17,-53.98,41705
-6.26,3.81,-3.73,0.63,-1.47,-0.15,7.82,-12.38,-54.97,41739
-7.56,9.05,-1.47,1.32,-1.26,0.88,6.31,-13.94,-54.68,41773
-5.32,7.64,-1.92,1.25,-1.57,0.51,4.71,-16.12,-55.29,41807
-3.10,9.68,-4.67,1.34,-1.51,0.91,2.28,-18.27,-55.93,41841
-8.59,7.79,-2.81,1.11,-1.46,1.10,0.80,-20.30,-55.73,41875
-5.94,8.61,-1.90,1.06,-1.41,0.71,-1.93,-21.53,-55.99,41910
-8.28,5.43,-4.53,1.22,-1.33,0.40,-4.40,-23.52,-56.28,41944
-5.80,6.62,-4.37,1.18,-1.66,0.40,-7.34,-25.62,-54.93,41978
-5.35,7.59,-4.31,1.03,-1.58,0.41,-9.31,-26.48,-54.94,42012
-6.85,6.49,-1.47,1.08,-1.56,0.22,-11.77,-27.38,-53.20,42046
-5.12,8.79,-3.95,0.86,-1.65,0.08,-14.22,-28.66,-51.93,42081
-2.45,9.15,-3.64,0.72,-1.63,0.14,-16.28,-29.79,-51.55,42115
-5.99,8.88,-2.28,0.62,-1.72,0.42,-18.88,-30.42,-49.99,42149
-6.11,6.01,-3.08,0.57,-1.82,0.03,-21.29,-30.39,-48.28,42183
-3.73,10.70,-1.82,0.51,-1.90,0.01,-23.62,-30.52,-46.52,42217
-3.35,6.72,-5.26,0.06,-1.71,-0.33,-25.46,-30.63,-44.75,42251
-4.92,8.56,-2.03,-0.04,-1.54,0.04,-27.58,-30.12,-44.14,42286
-4.54,7.59,-2.19,-1.26,-1.01,-0.47,-28.14,-29.79,-44.23,42320
-2.53,9.76,-5.30,-2.02,-0.24,-0.27,-28.15,-28.49,-45.25,42354
0.06,9.22,-4.29,-2.94,0.49,-0.26,-27.27,-26.48,-47.31,42388
-4.37,7.62,-7.53,-3.80,1.88,-0.75,-25.83,-21.81,-49.80,42422
-2.31,12.86,-10.29,-4.36,2.75,-0.65,-22.27,-16.88,-53.76,42457
-2.40,12.21,-12.85,-5.12,3.99,-0.84,-18.34,-11.74,-55.85,42491
-1.33,9.78,-13.71,-5.44,4.02,-0.66,-12.53,-3.93,-56.26,42525
1.67,10.72,-14.71,-5.43,4.66,-0.39,-7.48,2.60,-53.99,42559
-2.92,12.14,-16.85,-5.32,4.85,-0.67,-2.05,9.84,-51.37,42593
-0.57,10.64,-13.64,-5.26,4.76,-0.21,2.53,15.40,-48.22,42627
0.60,16.35,-13.54,-4.60,4.17,0.31,6.75,20.32,-43.10,42662
-0.95,13.53,-14.74,-5.10,4.84,0.47,11.34,25.45,-35.81,42696
-4.52,13.13,-15.36,-4.40,4.55,0.95,15.39,27.68,-28.18,42730
-2.26,11.30,-10.04,-3.29,4.31,1.35,18.33,29.03,-20.15,42764
-7.86,11.78,-5.34,-1.64,1.55,4.02,23.06,26.67,-14.75,42798
-11.29,11.84,-14.60,-2.07,1.66,4.38,28.92,22.19,-10.87,42833
-18.26,0.37,-29.27,0.80,0.72,4.47,34.01,15.55,-9.92,42867
-16.46,0.83,-19.30,5.29,-4.01,3.61,37.33,10.45,-18.15,42901
-22.32,3.93,-9.11,6.52,-4.28,1.69,37.93,7.02,-26.94,42935
-11.77,9.16,-4.19,4.68,-2.58,-1.68,36.04,4.90,-35.06,42969
-23.85,2.81,-5.50,1.48,1.30,-5.58,33.51,9.32,-35.21,43003
-9.32,20.35,6.34,-0.70,1.65,-6.95,30.49,16.25,-32.59,43038
-12.03,9.02,1.69,-2.96,3.59,-7.80,23.19,26.29,-26.54,43072
-8.23,-3.19,5.86,-2.96,2.53,-6.25,15.97,31.67,-20.87,43106
-6.64,-0.49,8.01,-3.26,2.32,-5.15,8.43,34.87,-14.56,43140
-16.68,9.24,8.43,-5.00,4.00,-4.74,1.24,34.51,-7.89,43174
-13.90,4.18,1.77,-5.55,4.10,-4.68,-6.62,32.71,-1.62,43208
-7.69,10.04,0.42,-5.59,4.06,-4.28,-15.76,27.10,4.28,43243
-6.87,16.82,2.60,-5.54,3.92,-3.93,-22.01,21.09,6.68,43277
-6.57,10.90,1.38,-5.68,4.07,-3.83,-29.28,12.58,7.60,43311
-5.47,10.86,-2.66,-6.26,4.82,-4.04,-34.70,4.53,4.90,43345
-1.64,9.76,-7.88,-5.96,4.41,-3.97,-38.09,-3.67,1.01,43379
-2.30,3.93,-10.03,-5.54,4.05,-4.01,-40.16,-12.36,-6.42,43414
-4.87,7.83,-6.30,-4.69,2.92,-3.49,-40.09,-18.55,-11.59,43448
-6.79,0.46,-5.76,-4.80,3.13,-3.39,-38.79,-22.77,-21.46,43482
-5.01,5.58,-6.50,-4.73,2.90,-3.32,-36.06,-26.89,-25.83,43516
-6.78,2.06,-6.81,-5.25,3.69,-3.58,-32.70,-28.43,-32.62,43550
-4.34,4.20,-10.14,-5.24,3.65,-3.70,-26.95,-28.18,-40.21,43584
-6.82,0.70,-9.60,-4.85,3.21,-3.38,-21.57,-26.85,-47.40,43619
-6.14,5.10,-5.46,-4.47,2.64,-2.76,-18.02,-24.07,-50.70,43653
-3.82,7.17,-5.48,-4.81,3.01,-2.66,-12.17,-19.04,-55.66,43687
-6.44,5.29,-11.06,-4.92,3.06,-2.47,-7.75,-13.39,-58.55,43721
-6.28,1.92,-11.37,-4.59,2.59,-2.10,-2.32,-5.89,-59.60,43755
-7.32,2.28,-9.86,-4.52,2.56,-1.64,1.49,1.02,-58.89,43790
-11.11,-4.41,-5.97,-4.47,3.13,-2.65,4.44,7.66,-57.56,43824
-8.72,-0.95,-5.71,-4.47,3.25,-2.72,6.94,15.67,-52.66,43858
-10.44,-0.51,-6.43,-4.37,3.48,-2.74,9.00,20.17,-47.71,43892
-10.76,-1.08,-4.93,-4.15,3.35,-2.77,9.98,24.99,-41.76,43926
-8.26,0.71,-4.71,-4.45,3.43,-2.68,9.62,30.30,-33.89,43960
-9.39,-0.76,-6.82,-5.10,4.28,-2.88,7.94,33.67,-26.41,43995
-6.37,1.37,-8.78,-4.60,3.79,-2.81,5.13,35.81,-17.38,44029
-10.02,1.43,-5.24,-4.38,3.98,-3.11,0.73,35.78,-10.32,44063
-7.85,3.03,-4.40,-4.33,3.73,-2.73,-4.28,34.79,-5.35,44097
-4.39,6.05,-9.91,-4.53,4.15,-3.04,-10.51,32.08,1.71,44131
-11.41,0.89,-2.37,-4.36,4.12,-2.62,-16.33,28.40,4.36,44166
-11.00,1.71,-6.09,-3.28,3.14,-2.39,-20.48,23.65,6.81,44200
-8.00,2.01,-4.42,-3.30,3.48,-2.40,-26.51,19.89,6.45,44234
-4.99,4.52,-6.92,-2.71,2.73,-2.51,-30.58,16.49,6.05,44268
-7.01,4.14,-7.42,-2.79,2.91,-2.91,-35.00,10.45,4.25,44302
-7.63,2.82,-5.69,-2.78,2.86,-3.02,-38.19,5.58,1.68,44336
-4.55,5.91,-7.45,-3.27,3.55,-3.38,-40.97,0.83,-1.99,44371
-5.93,6.63,-6.10,-3.75,4.01,-3.71,-43.26,-6.69,-8.36,44405
-4.65,6.32,-7.83,-3.97,4.07,-3.72,-43.57,-12.77,-14.21,44439
-9.35,0.37,-9.15,-3.87,3.97,-3.94,-42.25,-18.91,-22.67,44473
-11.44,-0.31,-7.50,-3.35,3.46,-3.91,-39.54,-23.02,-29.17,44507
-11.68,3.41,-4.94,-3.26,3.24,-4.16,-35.81,-26.05,-34.89,44541
-10.86,-0.88,-4.31,-3.80,3.73,-4.59,-29.41,-29.07,-43.22,44576
-8.58,6.96,-3.37,-4.27,4.16,-4.95,-21.85,-29.51,-49.43,44610
-8.26,1.70,-3.73,-4.25,4.01,-5.08,-13.94,-27.02,-53.74,44644
-5.36,8.43,-0.86,-3.95,3.48,-4.78,-4.63,-22.57,-57.89,44678
-5.64,6.78,-1.57,-4.18,3.66,-4.52,2.34,-17.28,-58.87,44712
-8.36,6.73,-4.78,-4.16,3.73,-4.18,9.62,-9.37,-57.64,44747
-7.56,5.47,-3.51,-3.59,3.02,-3.52,13.88,-2.59,-55.85,44781
-7.49,4.66,-4.55,-2.92,2.27,-2.87,16.65,2.82,-53.60,44815
-2.60,6.28,-7.88,-2.70,1.98,-2.61,18.25,8.30,-50.34,44849
-5.37,5.60,-6.45,-2.77,2.02,-2.63,19.12,13.15,-47.15,44883
-7.15,3.15,-5.50,-3.13,2.28,-2.47,19.66,18.82,-42.43,44917
-11.58,-0.54,-6.97,-3.90,3.40,-2.76,19.82,23.66,-36.32,44952
-9.91,-0.01,-6.23,-4.05,3.45,-2.62,19.67,27.26,-29.04,44986
-11.48,-2.31,-6.60,-4.38,4.22,-3.12,17.10,31.19,-19.83,45020
-9.12,0.58,-7.39,-3.93,3.45,-3.29,13.48,33.50,-12.74,45054
-12.58,-0.65,-1.43,-3.51,3.30,-3.59,8.83,34.16,-6.90,45088
-11.48,4.99,1.55,-3.24,3.17,-3.76,1.27,33.12,-1.45,45123
-6.07,7.20,-3.63,-3.51,3.46,-3.82,-5.31,31.92,3.62,45157
-3.91,11.05,-7.00,-4.06,4.09,-4.14,-14.57,27.48,7.23,45191
-8.34,7.08,-4.93,-4.18,4.05,-3.76,-21.29,22.60,9.60,45225
-8.24,4.13,-4.10,-3.51,3.38,-3.26,-27.01,17.87,9.13,45259
-4.87,4.88,-6.87,-3.18,2.96,-3.01,-32.36,11.44,8.02,45293
-10.18,2.04,-2.65,-3.15,2.94,-2.87,-36.07,6.39,5.86,45328
-7.05,4.30,-2.35,-3.43,3.35,-3.08,-38.94,-2.76,2.98,45362
-6.71,4.38,-7.81,-3.72,4.07,-3.36,-42.03,-5.64,-2.86,45396
-6.77,2.62,-9.35,-3.57,3.88,-3.84,-43.26,-11.75,-9.00,45430
-8.37,2.11,-4.45,-3.62,3.77,-3.89,-42.37,-18.52,-16.40,45464
-8.42,4.19,-7.04,-4.28,4.63,-4.30,-40.24,-24.00,-24.25,45499
-9.59,3.81,-6.81,-4.68,5.08,-4.57,-35.60,-27.55,-33.59,45533
-10.61,1.32,-4.50,-4.58,4.64,-4.46,-28.11,-28.82,-43.44,45567
-10.73,1.56,-6.84,-4.77,4.81,-4.84,-20.48,-28.47,-49.63,45601
-11.01,0.77,-5.02,-4.36,4.33,-5.00,-10.17,-24.70,-55.06,45635
-9.41,-0.05,-1.33,-4.16,3.89,-4.94,-2.63,-20.04,-57.83,45669
-10.18,4.45,-2.68,-4.31,4.07,-5.18,4.81,-14.31,-59.06,45704
-9.45,4.13,-3.96,-4.40,4.03,-5.05,12.25,-5.32,-56.64,45738
-9.06,4.12,-2.94,-4.29,3.77,-4.32,16.82,2.65,-53.48,45772
-6.37,7.68,-1.87,-3.54,2.96,-3.79,18.61,9.30,-45.78,45806
-8.22,8.46,-4.60,-2.94,2.48,-3.19,19.31,15.05,-45.31,45840
-6.96,7.45,-4.92,-3.07,2.23,-2.69,19.34,19.64,-40.78,45875
-7.50,4.26,-6.87,-3.23,2.25,-2.26,18.81,24.74,-35.15,45909
-8.39,1.88,-6.32,-3.00,2.14,-2.09,17.73,27.92,-30.36,45943
-6.57,2.09,-5.93,-2.52,1.73,-1.89,16.63,30.08,-25.52,45977
-6.93,2.40,-8.33,-2.92,2.28,-2.24,14.18,32.37,-20.24,46011
-7.66,2.01,-4.19,-3.68,2.85,-2.65,11.08,33.54,-14.28,46045
-9.18,0.66,-7.35,-4.67,4.14,-3.49,6.49,34.16,-4.98,46080
-10.84,-3.18,-5.29,-4.65,4.22,-3.73,-1.33,32.70,1.96,46114
-11.54,-1.78,-6.05,-4.27,3.86,-3.97,-8.49,30.21,5.85,46148
-9.99,1.05,-2.82,-4.49,4.34,-4.25,-17.23,24.60,8.33,46182
-7.17,5.21,-3.26,-4.04,3.75,-4.19,-23.93,18.69,9.70,46216
-7.82,5.99,-2.66,-3.91,3.46,-3.80,-29.87,12.69,9.76,46250
-8.38,5.34,-1.27,-3.84,3.46,-3.46,-35.21,4.93,6.45,46285
-7.42,6.47,-2.50,-3.43,3.18,-3.06,-38.64,-1.05,4.14,46319
-3.39,7.61,-8.85,-3.05,2.77,-2.66,-40.85,-7.07,-0.69,46353
-6.24,5.24,-8.48,-2.93,2.56,-2.60,-41.80,-11.65,-4.41,46387
-8.48,5.57,-3.33,-3.27,3.05,-2.64,-41.99,-16.72,-9.38,46421
-9.58,3.01,-5.22,-3.66,3.72,-2.76,-41.38,-21.21,-16.63,46456
-7.68,2.64,-7.00,-3.78,3.64,-2.82,-39.89,-23.85,-23.17,46490
-9.88,2.23,-7.97,-3.05,3.04,-2.70,-37.36,-26.22,-30.82,46524
-7.95,-2.27,-10.81,-2.91,2.95,-2.85,-33.38,-28.35,-36.89,46558
-14.11,-1.55,0.06,-2.94,2.83,-3.15,-29.45,-29.64,-41.03,46592
-10.64,2.01,0.63,-3.60,3.68,-4.02,-22.38,-29.35,-47.68,46626
-10.24,3.57,-2.89,-4.00,4.16,-4.64,-15.33,-28.47,-53.04,46661
-5.60,6.22,-1.84,-3.29,3.16,-4.51,-7.95,-24.89,-55.26,46695
-5.30,10.17,-5.21,-2.84,2.64,-3.82,-1.27,-20.68,-57.86,46729
-5.46,10.28,-0.46,-2.73,2.35,-3.53,4.43,-16.28,-58.16,46763
-4.17,9.56,-5.09,-2.63,2.14,-2.93,8.84,-11.52,-58.27,46797
-10.05,5.04,-4.27,-2.74,2.25,-2.68,12.07,-7.04,-57.59,46832
-6.57,5.27,-5.73,-2.44,1.86,-2.23,14.38,-2.79,-55.32,46866
-6.54,4.64,-6.14,-2.98,2.37,-2.38,17.32,3.27,-52.84,46900
-6.97,4.20,-5.95,-3.33,2.84,-2.63,19.12,8.46,-49.71,46934
-4.00,5.41,-6.06,-3.76,3.37,-2.91,20.90,14.13,-44.52,46968
-4.48,4.53,-9.18,-4.39,4.17,-3.30,22.04,21.16,-35.98,47002
-8.47,3.42,-9.32,-4.63,4.28,-3.15,21.60,25.97,-28.81,47037
-8.68,1.70,-9.84,-4.35,3.80,-2.81,19.70,29.80,-18.82,47071
-14.12,-6.75,-7.19,-4.17,4.00,-2.81,16.05,31.51,-11.37,47105
-14.23,-4.73,-3.77,-3.07,2.84,-3.22,11.47,31.92,-6.24,47139
-9.81,2.00,-0.03,-2.72,2.73,-3.92,4.81,32.02,-0.42,47173
-5.77,6.62,-2.78,-2.75,2.87,-4.36,-2.24,31.45,2.72,47208
-4.42,6.93,-3.63,-2.93,2.88,-4.07,-10.33,29.00,6.61,47242
-5.64,8.41,-3.28,-3.57,3.33,-3.88,-16.30,25.12,8.42,47276
-7.41,5.06,-4.76,-3.70,3.37,-3.54,-22.62,20.56,9.49,47310
-9.25,3.42,-3.30,-3.12,2.70,-2.81,-27.65,14.26,9.79,47344
-4.71,6.21,-8.39,-2.68,2.25,-2.57,-31.70,9.84,9.50,47378
-2.35,8.19,-6.81,-3.07,2.63,-2.83,-34.54,4.90,7.95,47413
-6.15,4.63,-1.49,-3.65,3.14,-2.65,-38.48,-1.64,3.68,47447
-8.68,1.82,-5.94,-3.57,3.47,-2.72,-40.73,-6.91,0.00,47481
-11.42,0.17,-6.93,-2.71,2.57,-2.33,-41.80,-12.04,-5.25,47515
-9.32,1.14,-7.06,-2.01,1.91,-1.95,-42.18,-15.29,-9.12,47549
-6.17,4.25,-7.03,-2.60,2.27,-2.11,-41.77,-18.31,-13.12,47583
-9.73,1.23,-3.05,-4.05,3.83,-3.13,-40.75,-22.57,-20.58,47618
-12.33,-1.73,-10.35,-5.06,5.14,-4.50,-36.95,-26.86,-30.72,47652
-13.34,-2.90,-6.42,-4.64,4.76,-5.11,-31.10,-29.87,-39.80,47686
-8.51,2.78,0.67,-3.70,3.44,-4.95,-23.19,-30.78,-46.13,47720
-11.12,4.09,0.89,-4.09,3.95,-4.67,-15.42,-29.83,-51.27,47754
-8.87,2.87,-2.66,-3.98,3.67,-4.30,-6.62,-26.05,-54.76,47789
-11.08,5.49,-2.20,-3.46,3.15,-3.95,-0.32,-21.78,-56.56,47823
-5.75,8.12,-1.52,-2.84,2.55,-3.59,5.51,-17.26,-58.20,47857
-4.29,9.67,-8.58,-2.57,1.99,-3.11,10.08,-12.48,-57.40,47891
-10.49,5.36,-3.01,-2.53,1.89,-2.63,13.39,-7.72,-57.28,47925
-3.06,8.83,-3.24,-2.24,1.61,-2.30,16.00,-2.94,-55.35,47959
-7.69,5.32,-4.79,-2.32,1.70,-1.95,17.79,1.93,-53.39,47994
-5.52,4.89,-6.03,-2.39,1.81,-1.82,19.32,5.63,-51.14,48028
-5.43,4.49,-9.32,-2.73,2.27,-1.95,21.29,10.36,-47.84,48062
-7.46,2.77,-8.41,-2.87,2.31,-2.04,22.46,14.51,-43.99,48096
-8.09,2.01,-5.86,-2.77,2.02,-1.87,23.43,18.05,-39.40,48130
-8.75,1.60,-6.58,-3.47,3.00,-2.09,23.69,23.11,-33.70,48165
-8.02,1.34,-8.96,-4.82,4.37,-2.71,22.60,27.07,-25.52,48199
-14.04,-4.91,-9.21,-4.96,4.79,-3.58,19.28,30.63,-13.69,48233
-12.03,-1.38,-3.86,-3.46,3.19,-4.12,13.40,32.33,-7.34,48267
-6.79,3.00,-2.57,-3.15,2.88,-4.57,7.07,32.64,-2.32,48301
-7.43,6.04,1.36,-4.12,3.95,-4.94,-2.22,31.58,4.40,48335
-8.77,6.26,-4.68,-4.58,4.10,-4.69,-10.92,28.11,8.16,48370
-9.52,-1.23,-4.46,-4.88,4.14,-4.26,-20.10,21.73,11.18,48404
-15.76,-1.02,-1.34,-3.89,3.29,-3.64,-26.19,15.58,11.37,48438
-5.78,4.77,-1.12,-2.41,1.84,-3.12,-29.79,10.52,11.37,48472
-4.24,7.42,-4.40,-1.92,1.32,-2.90,-33.24,5.52,9.12,48506
-2.01,10.23,-2.77,-2.20,1.52,-2.59,-35.06,0.73,9.05,48541
-5.04,6.22,-7.59,-2.39,1.58,-2.54,-37.04,-4.44,6.65,48575
-7.37,4.45,-6.18,-2.59,1.62,-2.56,-37.61,-9.75,4.60,48609
-9.67,1.44,-5.23,-2.02,0.95,-2.05,-38.28,-14.28,2.63,48643
-9.99,3.05,-4.19,-1.72,0.69,-1.79,-38.32,-17.79,0.79,48677
-10.56,3.67,-2.05,-2.27,1.31,-1.75,-38.26,-21.00,-2.28,48711
-8.69,4.13,-4.89,-3.02,2.31,-1.90,-38.13,-24.29,-5.86,48746
-10.92,2.06,-3.79,-3.03,2.40,-1.80,-37.75,-27.40,-11.72,48780
-8.81,3.24,-5.38,-2.21,1.70,-1.32,-37.14,-29.51,-15.83,48814
-8.35,3.85,-2.47,-0.91,0.38,-0.66,-35.98,-30.50,-18.91,48848
-5.70,6.55,-4.07,-0.09,-0.30,-0.31,-35.88,-30.90,-18.75,48882
-5.15,7.29,-5.45,-0.17,-0.23,-0.30,-35.79,-31.03,-18.96,48916
-3.69,6.54,-6.31,-0.42,-0.08,-0.43,-35.59,-31.39,-18.93,48951
-6.03,1.83,-8.55,-0.87,0.42,-0.80,-35.15,-32.26,-19.73,48985
-7.14,-0.69,-7.61,-1.37,0.58,-1.21,-34.52,-33.21,-21.84,49019
-6.43,-0.25,-7.35,-1.94,1.06,-1.51,-32.67,-34.58,-25.62,49053
-8.06,0.48,-5.86,-3.17,2.31,-2.25,-30.69,-36.16,-29.90,49087
-8.50,1.02,-8.52,-4.31,3.53,-2.96,-25.75,-36.32,-38.10,49122
-12.68,-1.36,-6.61,-5.06,4.37,-3.30,-19.86,-34.55,-45.13,49156
-8.54,1.23,-6.80,-5.60,5.07,-3.64,-12.03,-31.19,-52.41,49190
-12.76,0.64,-7.25,-5.68,5.28,-3.90,-1.56,-23.82,-57.60,49224
-11.21,1.92,-4.72,-5.35,4.81,-3.94,7.19,-15.78,-58.45,49258
-14.06,1.16,-2.32,-4.78,4.60,-4.04,14.09,-8.27,-56.61,49292
-11.55,0.54,-2.84,-4.17,4.25,-4.16,20.34,1.48,-52.59,49327
-6.32,4.99,-3.49,-3.08,3.01,-4.07,21.91,8.37,-48.26,49361
-1.81,9.73,-4.68,-3.11,3.07,-4.02,23.52,15.71,-42.56,49395
-7.19,6.45,-2.52,-3.61,3.56,-4.07,22.79,21.24,-36.77,49429
-10.02,3.75,-3.11,-3.30,3.33,-3.92,20.89,26.13,-29.57,49463
-6.66,4.85,-3.77,-2.54,2.36,-3.13,18.01,30.05,-24.06,49498
-6.46,6.86,-5.60,-2.12,1.78,-2.62,14.15,32.49,-20.07,49532
-7.19,6.85,-4.63,-2.15,1.87,-2.17,11.09,34.23,-15.48,49566
-6.31,7.26,-5.78,-1.93,1.55,-1.78,8.83,34.70,-12.41,49600
-6.42,7.28,-4.81,-1.62,1.13,-1.40,7.00,34.39,-9.95,49634
-4.70,6.27,-4.95,-1.18,0.59,-0.99,4.72,34.65,-7.83,49668
-5.42,5.99,-4.53,-1.36,0.74,-1.05,3.23,34.33,-5.89,49703
-6.78,2.52,-5.61,-2.33,1.77,-1.47,0.82,34.11,-2.12,49737
-10.06,-1.86,-8.72,-3.39,3.22,-2.23,-3.58,32.36,2.35,49771
-10.13,-3.66,-11.61,-3.51,3.28,-2.92,-8.77,29.47,5.70,49805
-10.97,-1.50,-8.04,-2.93,2.54,-3.49,-15.52,26.06,9.37,49839
-5.91,5.55,-1.80,-3.06,2.65,-3.65,-20.71,21.86,10.96,49874
-6.90,8.36,-2.15,-3.08,2.74,-3.63,-26.24,16.82,11.15,49908
-5.60,8.58,-2.08,-3.13,2.75,-3.10,-31.03,10.77,10.06,49942
-7.52,6.75,-3.52,-3.04,2.69,-2.24,-34.10,6.02,7.09,49976
-7.59,5.35,-5.19,-2.29,1.80,-1.89,-37.42,1.24,5.57,50010
-7.62,3.63,-3.20,-1.64,1.25,-1.52,-38.86,-1.67,4.53,50044
-7.53,3.92,-4.72,-1.54,1.48,-1.56,-39.49,-4.56,2.44,50079
-7.38,4.41,-4.93,-1.49,1.46,-1.51,-40.91,-7.82,-0.26,50113
-6.00,5.60,-5.45,-0.97,0.92,-1.36,-41.23,-10.11,-2.54,50147
-7.27,5.67,-3.72,-0.81,0.66,-1.19,-41.73,-12.29,-3.26,50181
-5.52,5.60,-4.67,-0.84,0.81,-0.96,-41.64,-14.37,-4.24,50215
-7.94,4.49,-6.83,-0.95,0.84,-0.85,-41.54,-15.64,-6.45,50250
-6.58,3.31,-6.69,-1.12,0.85,-0.83,-41.52,-17.09,-7.66,50284
-6.11,3.90,-7.60,-1.82,1.40,-1.29,-41.63,-19.26,-10.63,50318
-6.17,1.62,-8.58,-2.87,2.44,-2.07,-41.30,-21.66,-15.86,50352
-9.85,-0.19,-7.34,-3.63,3.10,-3.07,-39.20,-26.18,-22.39,50386
-8.20,1.40,-5.04,-3.63,3.06,-3.63,-36.39,-29.48,-28.59,50420
-9.20,3.20,-1.72,-3.60,3.10,-3.98,-30.63,-31.91,-36.00,50455
-6.95,6.75,-2.37,-3.41,3.12,-3.80,-25.84,-33.24,-41.79,50489
-2.02,10.82,-6.31,-3.25,2.84,-3.48,-20.36,-32.56,-46.24,50523
-7.83,6.50,-5.61,-2.96,2.57,-3.09,-13.53,-31.20,-50.28,50557
-5.16,7.49,-2.17,-2.50,2.06,-2.44,-9.94,-28.88,-53.26,50591
-6.14,6.48,-5.68,-3.12,2.51,-2.26,-5.47,-25.68,-55.99,50625
-8.14,3.46,-4.75,-3.06,2.71,-2.03,0.70,-21.12,-57.25,50660
-7.99,1.56,-9.41,-1.91,1.58,-1.56,4.21,-18.21,-57.45,50694
-7.89,2.70,-4.52,-1.56,1.18,-1.47,6.69,-15.07,-57.79,50728
-7.32,4.40,-3.50,-1.66,1.53,-1.51,9.35,-12.93,-57.25,50762
-5.79,2.15,-9.40,-2.21,2.27,-1.86,12.54,-9.46,-57.25,50796
-7.90,0.60,-8.81,-2.29,2.21,-2.25,16.06,-4.31,-55.45,50831
-8.12,0.93,-9.44,-2.98,2.82,-2.97,18.85,0.94,-52.89,50865
-10.07,1.54,-7.71,-4.32,3.89,-3.70,22.58,8.74,-47.97,50899
-12.10,2.49,-3.29,-5.18,4.70,-4.25,23.95,16.72,-40.16,50933
-14.93,-1.12,-2.16,-5.59,5.36,-4.81,23.53,23.95,-30.46,50967
-14.49,-0.98,-4.30,-4.50,4.22,-4.69,18.99,30.08,-19.66,51001
-10.17,4.21,-2.81,-2.94,2.48,-3.94,14.12,32.84,-15.51,51036
-6.82,8.35,2.28,-2.33,1.75,-3.23,9.54,34.03,-10.65,51070
-4.33,11.53,2.01,-2.64,2.22,-3.04,4.31,34.61,-6.14,51104
-5.71,8.32,-7.98,-3.21,2.94,-2.88,-0.83,33.81,-1.62,51138
-6.24,4.36,-7.37,-2.33,1.57,-2.44,-6.42,32.14,2.03,51172
-9.28,2.60,-3.96,-1.54,0.69,-1.97,-8.80,31.22,4.15,51207
-6.33,4.81,-3.94,-1.78,1.07,-1.84,-11.30,29.64,5.98,51241
-7.75,4.70,-4.31,-2.39,1.82,-1.94,-15.73,27.07,7.48,51275
-9.72,3.27,-5.94,-2.62,1.97,-1.88,-18.50,24.07,9.59,51309
-7.28,3.02,-4.92,-2.27,1.57,-1.72,-21.76,20.18,10.51,51343
-10.27,1.95,-4.55,-2.07,1.61,-1.58,-24.99,17.32,10.33,51377
-7.67,3.85,-4.54,-1.54,0.89,-1.26,-26.40,15.29,10.83,51412
-7.30,5.40,-5.99,-1.65,0.86,-1.24,-28.12,12.69,11.03,51446
-4.37,6.08,-6.76,-1.98,1.06,-1.36,-29.61,9.88,11.03,51480
-6.18,4.35,-5.68,-2.00,1.14,-1.53,-31.26,6.46,10.17,51514
-6.11,3.65,-4.63,-2.02,1.20,-1.67,-32.97,2.86,10.03,51548
-8.78,2.69,-4.70,-2.89,1.97,-2.08,-34.89,-1.26,8.74,51583
-7.20,1.09,-8.14,-4.34,3.34,-2.62,-37.69,-7.37,4.05,51617
-9.25,-2.09,-9.12,-4.87,3.87,-3.04,-40.06,-13.33,-2.53,51651
-11.53,-3.33,-6.44,-4.41,3.55,-3.45,-40.28,-19.79,-7.48,51685
-12.64,-0.95,-1.27,-3.83,3.07,-3.50,-38.60,-25.27,-15.30,51719
-10.14,1.75,0.53,-3.48,2.82,-3.34,-36.52,-29.55,-21.72,51753
-10.73,5.68,0.05,-2.84,2.60,-3.03,-33.40,-32.39,-28.87,51788
-2.37,14.78,-4.32,-1.68,1.44,-2.05,-29.99,-33.86,-32.18,51822
0.76,14.61,-8.24,-1.03,0.66,-1.61,-28.09,-35.09,-34.11,51856
-4.72,6.98,-2.44,-1.06,0.59,-1.27,-25.69,-36.03,-35.68,51890
-9.78,-1.33,-5.99,-0.61,0.26,-1.00,-24.12,-36.28,-37.42,51924
-9.19,-1.02,-3.08,0.03,-0.36,-1.04,-23.78,-37.34,-37.69,51958
-8.50,4.66,-0.76,-0.15,0.13,-0.98,-22.71,-38.10,-38.02,51993
-8.69,5.71,-4.05,-0.78,0.63,-1.00,-21.63,-38.07,-38.37,52027
-9.24,1.17,-10.80,-1.25,1.19,-0.75,-19.41,-37.31,-40.81,52061
-5.34,2.49,-6.10,0.00,-0.50,-0.39,-18.74,-37.83,-41.55,52095
-5.21,6.50,-2.14,0.10,-0.40,-0.27,-19.01,-37.74,-41.44,52129
-5.02,6.86,-2.60,-1.76,1.62,-0.94,-17.00,-36.79,-43.64,52164
-7.41,2.76,-6.59,-3.03,2.67,-1.34,-13.71,-35.15,-46.87,52198
-6.36,3.08,-12.28,-3.34,3.12,-1.41,-9.73,-32.13,-51.49,52232
-5.08,1.43,-13.12,-3.75,3.23,-2.02,-3.90,-27.51,-54.38,52266
-7.67,2.74,-6.33,-4.15,3.40,-2.43,2.22,-22.86,-57.06,52300
-11.48,1.78,-3.90,-5.62,4.89,-3.29,11.15,-13.81,-57.04,52334
-17.10,0.37,-10.48,-6.15,5.75,-4.55,18.97,-4.00,-54.03,52369
-18.31,-5.97,-9.39,-4.20,3.83,-5.16,22.93,5.00,-48.89,52403
-10.42,-2.70,3.14,-1.46,0.86,-4.36,21.75,11.90,-46.05,52437
0.27,12.21,1.35,-2.78,2.43,-4.59,19.85,16.65,-42.77,52471
-5.10,12.72,-3.35,-4.74,4.09,-4.61,15.26,24.23,-34.22,52505
-8.53,4.17,-5.63,-5.67,4.57,-4.52,15.46,29.83,-24.99,52540
-10.22,2.08,-4.75,-4.12,2.99,-3.94,11.20,33.08,-18.31,52574
-4.29,7.59,-6.95,-1.75,0.52,-2.81,6.52,33.37,-14.81,52608
-6.30,8.26,-4.35,-1.89,0.40,-2.18,3.55,34.26,-12.91,52642
-5.77,5.99,-3.44,-2.72,1.01,-1.99,1.23,33.89,-8.96,52676
-10.15,0.89,-4.53,-2.64,1.01,-1.71,-2.44,33.21,-4.82,52710
-7.34,3.29,-10.34,-2.09,0.48,-1.38,-4.05,31.99,-1.94,52745
-8.28,4.24,-5.46,-1.95,0.02,-1.22,-6.07,30.46,1.04,52779
-8.55,2.46,-2.59,-2.88,1.05,-1.22,-7.44,28.85,4.43,52813
-4.71,2.19,-4.31,-4.11,2.19,-1.87,-10.22,25.88,6.85,52847
-11.07,-1.27,-7.73,-4.73,2.84,-2.37,-15.24,20.40,11.28,52881
-9.79,-0.23,-4.55,-5.12,3.00,-2.42,-19.79,14.75,13.65,52916
-12.00,-1.37,-6.94,-5.85,3.98,-2.71,-24.35,8.01,13.97,52950
-12.06,-2.54,-2.22,-6.15,4.29,-2.70,-29.77,-1.58,11.46,52984
-12.28,-0.63,-0.13,-4.84,3.70,-2.62,-33.09,-8.18,7.35,53018
-11.93,-1.79,0.13,-4.20,3.34,-2.73,-35.08,-14.97,1.78,53052
-12.15,0.19,-3.95,-3.08,2.78,-2.64,-35.95,-19.72,-3.03,53086
-3.69,14.11,-5.83,-2.18,1.86,-2.66,-36.06,-23.71,-6.09,53121
-1.85,14.33,-3.61,-2.66,2.35,-2.54,-35.21,-27.73,-11.56,53155
-3.29,4.92,-4.63,-3.49,2.80,-2.43,-33.54,-31.07,-17.52,53189
-11.07,-2.63,-6.46,-3.28,3.00,-2.46,-31.22,-32.94,-23.47,53223
-12.40,-0.12,1.55,-1.98,1.88,-2.05,-29.13,-34.33,-28.28,53257
-7.15,6.08,-3.54,-2.48,2.68,-1.96,-26.60,-34.90,-31.91,53291
-6.61,5.16,-4.86,-3.79,3.92,-2.02,-22.14,-33.89,-38.75,53326
-6.69,4.24,-9.21,-4.40,4.77,-2.36,-16.57,-31.80,-45.22,53360
-7.00,2.69,-9.03,-3.31,3.88,-2.54,-10.33,-29.35,-49.56,53394
-5.28,3.26,-4.65,-2.84,3.42,-2.87,-3.61,-25.42,-52.25,53428
-7.42,6.22,-3.27,-3.94,5.04,-3.29,3.96,-21.15,-53.62,53462
-8.05,2.26,-13.29,-4.19,5.17,-4.07,12.91,-14.07,-52.88,53497
-12.42,-1.97,-19.04,-3.16,4.38,-4.86,18.93,-8.20,-50.83,53531
-14.71,-6.38,-4.96,-2.61,3.26,-5.10,22.41,-1.83,-46.77,53565
-7.97,9.93,-0.67,-3.89,4.33,-5.31,25.07,7.06,-40.84,53599
-9.57,-0.80,-5.25,-6.71,6.72,-7.13,24.99,17.25,-30.87,53633
-15.97,1.67,-5.80,-8.14,7.63,-7.83,20.52,24.48,-12.23,53667
-15.11,-9.86,18.90,-9.26,8.40,-6.92,9.51,25.86,1.26,53702
-0.10,12.11,20.87,-10.41,7.77,-4.47,-0.16,19.54,10.80,53736
0.03,39.16,-6.03,-10.14,7.46,-5.37,-12.80,5.99,16.84,53770
3.59,-1.25,-17.73,-2.40,3.02,-3.41,-19.85,-0.69,15.62,53804
3.72,22.27,9.94,-2.45,1.27,-0.77,-18.96,-1.75,15.24,53838
-11.32,4.45,0.97,-3.24,1.90,-1.69,-21.72,-7.09,13.97,53873
4.55,9.49,-11.06,-1.94,0.98,-0.43,-22.84,-9.85,13.04,53907
-13.04,2.95,10.76,-2.75,2.23,-0.23,-23.98,-12.60,10.83,53941
0.42,8.48,-8.11,-2.93,1.72,-0.96,-26.19,-16.22,7.94,53975
-1.96,8.15,-2.71,-0.57,-0.48,0.31,-26.66,-17.49,6.72,54009
-4.56,9.52,-6.43,-1.89,0.44,-1.42,-26.31,-20.74,6.09,54043
-3.06,6.07,-2.41,-2.49,1.10,-1.26,-26.57,-23.90,2.65,54078
-6.08,8.34,0.53,-2.85,2.00,-1.18,-27.32,-26.13,-1.43,54112
-15.86,6.99,0.78,-3.33,1.69,-1.77,-27.43,-30.12,-6.97,54146
-7.31,15.63,-2.34,-2.01,0.84,-1.43,-26.70,-32.49,-9.87,54180
-7.34,12.88,-2.97,-1.84,1.27,-2.57,-24.96,-35.95,-14.15,54214
-4.45,8.13,-0.72,-1.88,1.30,-2.51,-23.93,-37.99,-17.16,54249
1.32,9.08,-5.56,-2.79,1.71,-1.62,-22.65,-39.81,-21.22,54283
-3.56,6.67,-6.90,-2.88,2.86,-1.93,-20.20,-40.25,-27.83,54317
-2.34,7.73,-2.53,-2.92,2.23,-1.19,-18.17,-40.18,-33.10,54351
-2.01,7.88,-2.85,-2.41,1.57,-0.71,-16.92,-39.08,-37.34,54385
-3.50,8.75,-3.49,-1.92,1.38,0.78,-16.47,-37.77,-39.86,54419
-3.52,10.33,-3.85,-1.55,0.31,1.72,-17.47,-34.93,-42.20,54454
6.07,16.45,1.97,-2.17,0.29,1.89,-19.16,-31.42,-43.20,54488
-10.50,7.46,-4.61,-2.34,1.54,0.99,-17.76,-28.24,-45.70,54522
-8.46,6.83,-6.29,-2.67,1.80,0.92,-16.54,-25.88,-47.37,54556
-8.23,5.64,-9.20,-3.49,2.36,0.45,-13.53,-21.98,-49.01,54590
5.36,5.20,-4.86,-3.28,2.40,0.56,-10.83,-19.86,-50.57,54625
-14.94,2.58,-21.73,-1.82,1.52,0.47,-8.73,-18.49,-51.84,54659
-3.41,1.55,-10.65,0.44,0.14,0.49,-9.88,-18.90,-52.05,54693
-6.47,4.43,-4.17,0.08,0.19,0.59,-10.49,-19.73,-52.57,54727
-7.23,7.42,-0.29,0.58,-0.71,0.89,-12.89,-21.00,-52.63,54761
-5.89,8.09,1.66,0.25,-0.41,0.60,-14.64,-20.67,-52.84,54795
-5.72,7.78,1.50,-0.59,0.03,0.57,-16.14,-20.17,-52.57,54830
-4.85,8.06,0.17,-1.17,0.90,0.08,-16.60,-18.12,-54.66,54864
-2.40,6.56,-4.54,-1.36,1.02,0.12,-16.25,-16.00,-55.66,54898
-4.94,5.40,-5.25,-1.47,1.20,0.17,-15.57,-13.05,-56.55,54932
-6.55,4.19,-8.91,-1.59,1.73,-0.49,-14.24,-10.30,-58.65,54966
-7.79,6.79,-8.77,-1.14,1.48,-0.48,-12.10,-7.89,-59.24,55000
-5.09,6.69,-4.47,-1.18,1.56,-0.44,-10.92,-5.04,-59.05,55035
-7.44,5.12,-7.64,-1.85,2.21,-1.03,-8.55,-1.96,-59.65,55069
-7.46,4.88,-6.86,-0.40,0.66,-0.22,-6.84,0.00,-59.37,55103
-5.90,7.30,-4.15,-0.39,0.59,-0.16,-6.77,1.27,-59.76,55137
-5.93,6.46,-2.84,-0.38,0.66,-0.23,-5.70,2.67,-61.05,55171
-8.00,6.66,-3.73,-0.41,0.63,0.11,-4.87,4.06,-59.97,55206
-8.81,5.92,-3.70,-0.84,0.68,-0.48,-3.99,5.47,-59.65,55240
-5.70,7.38,-3.27,-1.12,0.97,-0.54,-2.66,8.04,-59.57,55274
-7.75,6.85,-2.54,-1.27,1.07,-0.47,-1.23,11.05,-57.64,55308
-5.97,7.50,-2.43,-1.08,0.99,-0.56,-0.61,13.23,-57.57,55342
-6.66,6.69,-3.73,-0.94,0.69,-0.41,0.83,15.99,-55.74,55376
-6.01,6.64,-3.76,-0.80,0.59,-0.43,1.70,17.22,-54.50,55411
-5.72,8.27,-2.41,-0.58,0.22,-0.12,1.90,19.03,-54.00,55445
-5.14,8.11,-0.88,-0.36,-0.07,-0.25,2.56,19.92,-52.72,55479
-2.97,11.50,1.99,-0.42,-0.15,-0.02,2.38,20.91,-51.53,55513
-5.69,11.08,-1.73,-0.79,-0.37,-0.20,2.86,22.39,-50.03,55547
3.89,15.23,-1.83,-0.93,-0.98,-0.06,2.21,23.46,-49.08,55582
1.72,13.72,-6.59,-2.46,0.45,-0.60,2.95,26.12,-45.97,55616
-7.00,21.02,-6.24,-2.93,0.90,-1.09,3.52,28.59,-41.32,55650
-7.23,10.65,-12.62,-2.95,0.70,-2.73,2.03,30.81,-36.92,55684
-12.70,-3.22,-22.56,-3.58,3.66,-3.66,-0.57,33.10,-33.06,55718
-5.75,4.37,-5.78,-3.10,4.51,-3.45,-3.14,34.98,-27.92,55752
3.20,3.38,-8.93,-3.35,3.67,-1.62,-4.68,36.07,-23.33,55787
-7.29,-1.30,-9.24,-2.99,3.60,-0.93,-4.75,36.39,-19.13,55821
-4.31,-0.12,-5.08,-2.43,2.07,0.57,-4.14,36.16,-16.81,55855
-4.87,-0.59,-4.02,-2.13,2.43,1.51,-2.35,36.00,-13.68,55889
-39.18,-11.24,-33.78,-0.53,2.58,1.40,0.50,35.03,-12.51,55923
-14.20,2.78,-8.75,1.28,-0.81,2.18,3.99,35.02,-14.18,55958
-14.16,-0.39,2.70,1.99,-0.96,2.32,6.43,34.19,-16.60,55992
-9.87,2.18,3.93,2.71,-1.71,2.90,10.96,31.98,-21.21,56026
-9.94,3.88,3.71,3.49,-2.73,3.34,14.03,29.23,-26.10,56060
-13.04,4.82,2.50,4.17,-3.26,3.83,17.49,24.57,-34.17,56094
-9.01,5.59,-1.04,4.93,-4.34,3.90,18.06,19.31,-40.92,56128
-7.83,4.80,-2.08,5.50,-4.93,4.06,17.45,12.03,-47.30,56163
-16.56,27.64,14.39,4.82,-3.96,5.18,14.24,4.38,-53.43,56197
0.57,10.52,-7.00,2.20,-3.47,3.21,11.50,0.76,-54.79,56231
-3.38,7.34,-9.80,2.78,-3.87,3.70,8.11,-7.25,-56.75,56265
1.68,9.10,-13.34,3.20,-5.11,3.12,1.86,-8.67,-57.76,56299
-1.33,13.78,-2.29,0.29,-1.32,0.77,-2.05,-10.48,-58.13,56333
-6.52,9.54,-1.43,-1.81,0.74,-1.01,-0.95,-8.01,-57.73,56368
-5.14,7.28,-5.38,-2.14,1.08,-1.42,0.91,-4.79,-57.59,56402
-3.02,6.84,-7.30,-1.43,0.32,-0.93,1.89,-1.81,-56.88,56436
-5.56,7.66,-6.06,-0.86,-0.07,-0.89,2.08,0.45,-56.64,56470
-3.55,10.48,-4.45,-0.88,-0.23,-1.28,1.99,2.24,-56.36,56504
-5.03,8.37,-2.37,-2.08,1.07,-2.20,2.53,5.06,-56.12,56539
-2.09,8.21,-5.23,-3.03,1.54,-2.75,3.80,9.49,-53.65,56573
-3.11,3.05,-8.35,-3.77,2.49,-3.11,5.32,14.29,-50.34,56607
-3.32,5.65,-9.60,-3.17,1.80,-2.62,5.13,19.56,-46.35,56641
-4.56,8.74,-4.98,-2.59,0.97,-1.91,4.88,22.90,-44.31,56675
-3.10,7.86,-2.11,-2.94,1.27,-1.47,4.08,25.50,-39.83,56709
-4.54,10.35,-1.01,-3.28,1.51,-1.07,3.67,28.73,-35.57,56744
-6.92,12.26,-3.61,-3.81,1.79,-0.85,3.39,31.18,-30.27,56778
-5.77,10.06,-4.61,-4.10,2.16,-1.21,3.10,33.88,-23.25,56812
-5.19,8.68,-6.30,-3.94,2.28,-1.27,1.71,34.87,-16.62,56846
-5.14,7.52,-8.71,-3.72,2.48,-1.22,0.09,35.18,-10.89,56880
-8.13,8.69,-9.90,-3.40,2.58,-1.07,-2.50,35.68,-5.04,56915
-6.72,9.13,-10.11,-3.14,2.42,-0.75,-4.24,34.54,-0.69,56949
-6.53,8.92,-8.61,-3.15,2.40,-0.43,-6.08,33.38,4.38,56983
-9.31,6.16,-8.35,-2.91,2.32,-0.09,-7.86,31.28,7.59,57017
-7.45,3.65,-8.39,-2.55,2.37,0.20,-9.06,29.64,9.78,57051
-8.37,2.31,-7.94,-1.97,2.26,0.56,-9.98,28.25,12.31,57085
-10.10,0.31,-6.32,-1.49,2.15,0.67,-10.99,26.95,12.25,57120
-9.34,-1.90,-9.26,-0.97,2.18,0.97,-11.62,26.91,12.77,57154
-15.15,-2.89,-8.94,0.60,0.60,1.20,-11.75,27.48,12.88,57188
-12.11,2.22,-1.87,1.64,-1.43,1.42,-8.90,29.30,11.08,57222
-9.69,6.27,2.81,1.26,-0.88,1.06,-5.57,31.09,8.99,57256
-5.78,4.15,-0.56,0.04,1.17,0.55,-4.68,31.29,9.40,57291
-10.31,4.30,3.33,0.63,-0.06,0.93,-4.43,31.64,8.75,57325
-1.93,8.44,-3.76,1.93,-1.31,1.75,-1.32,32.99,6.01,57359
-4.07,7.48,-1.98,2.68,-1.92,2.53,3.54,34.22,2.05,57393
-6.36,9.50,-0.95,3.67,-2.88,2.58,8.16,35.11,-4.90,57427
-4.96,9.73,0.98,2.96,-2.70,2.30,13.86,34.46,-10.30,57461
-6.60,8.57,0.65,2.34,-2.24,2.08,17.04,33.57,-15.61,57496
-5.66,7.68,-2.73,2.11,-2.10,2.23,20.39,31.76,-19.58,57530
-7.67,6.36,-5.13,2.67,-2.64,2.48,22.86,29.03,-25.07,57564
-7.55,7.22,-8.02,2.94,-2.94,2.16,24.51,25.65,-30.75,57598
-6.55,10.00,-4.91,2.73,-2.84,1.11,24.47,21.94,-37.12,57632
-4.83,9.75,-0.63,1.87,-2.19,1.25,23.24,19.66,-40.59,57666
-3.28,12.95,-1.34,1.44,-2.02,1.67,22.95,17.04,-44.20,57701
0.73,9.78,-2.38,0.79,-1.86,2.32,22.68,13.83,-46.16,57735
-0.75,7.26,-6.46,0.23,-1.49,2.49,23.08,12.01,-47.73,57769
-3.94,4.33,-6.14,-0.21,-0.93,1.78,23.05,10.76,-48.29,57803
-7.87,4.62,-4.05,1.19,-2.28,2.00,22.90,8.55,-50.07,57837
-4.26,5.77,-5.92,2.50,-3.94,2.60,20.26,4.82,-54.56,57872
-8.92,10.01,-4.61,3.34,-4.86,2.71,14.76,-1.58,-59.44,57906
-11.97,8.25,-3.58,2.95,-4.21,1.72,8.74,-6.36,-61.01,57940
-13.60,5.53,-6.98,2.21,-3.55,1.43,2.10,-10.38,-62.47,57974
-11.23,7.65,-7.05,2.27,-3.52,0.80,-2.62,-13.72,-61.44,58008
-1.01,0.88,-7.78,2.17,-3.30,0.66,-7.99,-16.57,-60.23,58042
6.19,7.57,-4.87,0.22,-1.99,0.78,-12.01,-17.00,-59.91,58077
4.99,12.56,-4.22,-0.81,-0.69,0.68,-12.76,-16.16,-59.84,58111
1.76,6.05,-6.45,1.03,-2.91,1.60,-17.10,-15.65,-58.86,58145
0.36,0.05,-9.17,2.60,-4.44,3.57,-23.49,-16.28,-55.54,58179
-0.36,-0.10,-13.31,4.62,-6.47,4.47,-30.81,-17.23,-50.45,58213
3.66,7.35,-8.10,4.66,-6.56,4.11,-39.93,-16.85,-40.41,58248
-0.42,10.24,-5.58,3.21,-4.76,2.50,-44.02,-15.30,-33.70,58282
-38.14,3.30,5.48,1.90,-2.04,2.05,-46.64,-12.32,-29.58,58316
-7.71,5.23,-6.69,4.20,-5.97,0.05,-47.88,-14.25,-20.05,58350
-5.56,8.24,-9.54,4.20,-4.35,1.84,-47.59,-15.24,-12.41,58384
-11.31,7.63,-10.20,2.40,-3.43,1.83,-46.77,-11.44,-4.28,58418
-2.35,8.97,-8.83,2.62,-3.81,1.29,-45.57,-9.13,0.80,58453
-6.04,6.33,-11.07,3.27,-3.74,0.28,-43.17,-6.53,5.77,58487
-9.37,4.35,-12.01,4.09,-4.16,-0.60,-39.23,-4.63,11.94,58521
-10.12,8.54,-10.47,4.44,-3.88,-2.17,-35.17,-3.13,16.46,58555
-15.69,1.19,0.22,4.49,-4.17,-1.52,-31.66,-0.88,19.94,58589
1.59,6.75,-6.41,5.09,-6.02,-1.08,-24.19,3.83,23.00,58624
10.32,15.06,-2.61,2.67,-2.71,0.91,-18.43,7.91,24.55,58658
4.48,15.46,-8.23,1.63,0.11,2.32,-16.94,10.73,24.63,58692
1.44,15.60,-7.86,1.57,-0.06,3.55,-14.67,14.07,22.99,58726
3.20,14.35,-8.14,2.01,-1.32,4.43,-10.76,17.60,22.11,58760
1.14,12.26,-4.96,2.07,-1.62,4.31,-4.94,21.00,20.67,58794
1.90,10.55,-0.98,1.91,-1.55,3.65,0.19,23.75,18.49,58829
-0.34,12.02,11.67,3.08,-3.22,2.47,6.56,25.77,14.73,58863
-8.17,29.56,13.82,1.49,-0.37,1.04,10.17,27.67,12.39,58897
-5.46,12.10,1.74,0.16,-1.08,-0.92,8.11,27.17,13.56,58931
-2.21,5.83,-6.03,1.20,-1.89,0.06,9.60,28.28,11.37,58965
-2.16,7.82,-4.27,1.32,-1.80,0.32,11.84,28.71,10.06,59000
-8.50,8.97,1.03,0.67,-0.98,-0.28,12.63,29.63,8.16,59034
-6.77,5.20,-1.06,0.68,-0.97,-0.85,12.29,30.80,6.26,59068
-7.00,7.59,0.82,0.97,-0.68,-0.43,12.34,31.67,4.71,59102
-7.12,10.55,-0.35,0.84,-0.80,-0.22,12.55,32.72,3.71,59136
-6.03,9.30,-0.12,0.93,-1.18,-0.10,13.30,33.02,2.32,59170
-4.40,9.82,-0.69,1.32,-1.71,0.53,15.30,32.93,-0.32,59205
-5.50,8.32,-0.52,0.91,-1.57,0.67,17.32,32.84,-3.41,59239
-5.89,6.27,-2.22,0.93,-1.70,0.46,18.55,32.59,-5.64,59273
-6.21,6.43,-0.60,0.92,-1.63,0.08,19.63,32.74,-8.52,59307
-5.17,8.32,-1.73,0.55,-1.22,-0.33,20.04,32.83,-9.65,59341
-4.66,7.30,-3.10,0.35,-0.89,-0.20,19.25,32.97,-10.57,59375
-8.31,5.53,-0.76,0.35,-1.00,-0.10,19.69,33.28,-10.80,59410
-8.41,7.91,-1.51,0.14,-0.81,-0.56,19.54,33.73,-11.79,59444
-7.94,5.71,-2.89,0.05,-0.83,-0.79,18.78,33.75,-12.64,59478
-8.03,6.08,-0.14,0.64,-1.21,-0.56,17.74,34.30,-13.88,59512
-7.88,6.44,-0.43,0.33,-1.03,-0.91,17.29,34.52,-14.73,59546
-8.16,6.14,-0.80,0.49,-1.08,-0.92,15.70,35.09,-17.20,59581
-8.88,5.02,-1.66,0.88,-1.38,-0.79,14.62,35.41,-18.46,59615
-9.57,8.10,-2.83,1.50,-2.09,-0.36,13.58,35.84,-21.56,59649
-7.61,14.96,-2.89,1.39,-2.70,0.36,13.34,35.50,-25.34,59683
-1.64,19.55,-3.95,1.15,-3.01,0.66,12.83,34.76,-29.00,59717
-2.51,16.79,-1.89,-0.25,-2.19,0.11,11.96,34.13,-28.97,59751
-10.54,4.62,-1.28,-1.26,-1.36,-0.99,10.90,35.25,-28.08,59786
16.45,5.58,-30.06,-2.27,2.33,-2.56,8.42,35.88,-24.74,59820
-21.18,4.33,-4.69,-4.06,8.02,-3.64,3.93,38.35,-15.81,59854
-0.18,8.47,-4.85,-2.44,2.73,-1.71,0.34,38.18,-10.98,59888
-2.48,9.32,-3.94,-2.01,4.20,-2.49,-4.00,38.06,-9.16,59922
-8.56,7.36,1.41,-1.73,3.50,-2.01,-8.83,37.59,-6.34,59957
-15.38,6.15,2.37,-0.94,-0.26,-1.12,-10.89,37.11,-6.85,59991
-7.73,6.67,-2.00,-0.36,-0.95,-0.59,-11.53,36.95,-6.23,60025
-11.02,7.14,-3.69,-1.33,0.17,-0.77,-11.84,36.61,-5.10,60059
-7.10,4.73,-2.81,-2.04,0.79,-0.81,-13.05,35.75,-3.52,60093
-8.08,1.53,-5.05,-2.54,1.50,-0.49,-13.84,35.11,-1.62,60127
-11.73,1.62,-8.02,-2.37,1.47,-0.33,-14.73,33.92,1.62,60162
-6.47,0.18,-8.99,-1.94,1.14,-0.16,-14.45,32.21,7.21,60196
-8.55,0.84,-9.07,-1.23,0.60,0.08,-14.06,31.50,4.30,60230
-9.83,1.58,-9.19,-0.53,-0.33,0.36,-12.86,31.16,5.41,60264
-8.47,1.13,-7.18,-0.17,-0.80,0.46,-11.02,31.26,4.97,60298
-11.07,3.23,-4.36,-0.05,-1.00,0.41,-9.30,31.09,5.26,60333
-7.46,2.57,-1.02,-0.24,-0.83,0.16,-8.40,30.75,5.14,60367
-9.28,2.07,-3.36,-0.78,-0.09,-0.14,-7.22,30.05,7.02,60401
-9.69,1.60,-2.02,-1.20,0.33,-0.35,-6.40,29.14,7.88,60435
-10.94,2.27,-2.57,-1.18,0.34,-0.54,-7.02,27.92,10.52,60469
-10.15,1.81,-4.42,-0.79,-0.07,-0.37,-6.81,26.66,11.69,60503
-7.39,2.08,-4.29,-0.69,-0.32,-0.28,-6.45,26.31,12.07,60538
-7.24,2.74,-5.26,-0.66,-0.55,-0.11,-6.37,25.45,13.17,60572
-7.09,3.88,-4.21,-0.74,-0.93,0.16,-5.06,23.84,14.41,60606
-6.43,6.68,-6.52,-1.01,-0.64,0.38,-3.16,22.99,15.86,60640
-6.24,6.90,-5.22,-1.81,-0.39,0.48,-1.29,20.51,17.96,60674
-6.67,7.94,-3.22,-2.38,0.47,0.52,-0.06,17.71,19.76,60708
-6.98,9.08,-3.59,-2.66,1.52,0.36,-1.17,13.23,22.19,60743
-6.21,7.66,-3.66,-2.63,1.87,0.39,-2.84,9.32,23.36,60777
-10.96,8.48,-2.10,-1.39,1.06,0.92,-3.77,6.53,23.78,60811
-4.61,4.85,-9.47,-1.16,1.08,1.36,-4.27,3.99,25.07,60845
-4.72,6.32,-5.71,-0.66,0.42,1.96,-4.09,2.32,25.27,60879
-7.94,5.26,-6.12,-0.18,0.59,2.37,-4.11,0.58,26.07,60914
-7.98,4.70,-5.74,0.30,0.39,2.63,-4.79,0.80,24.79,60948
-9.06,4.90,-4.54,0.90,0.52,2.68,-5.16,1.46,25.72,60982
-9.67,6.02,-4.95,1.17,0.66,2.49,-5.77,3.46,25.91,61016
-9.01,6.09,-5.85,1.23,0.54,1.89,-7.06,5.38,26.37,61050
-8.11,6.26,-4.03,1.11,0.82,0.96,-7.89,7.37,25.23,61084
-7.30,6.65,-3.61,1.02,0.83,0.60,-9.75,9.84,24.98,61119
-7.25,6.51,-3.74,0.85,1.13,0.27,-11.81,12.19,24.76,61153
-6.43,6.99,-2.90,0.73,1.30,0.12,-14.59,14.85,22.73,61187
-5.84,7.86,-2.45,0.50,1.54,0.00,-17.11,16.59,20.46,61221
-6.87,8.21,-2.89,0.17,1.60,-0.23,-19.31,18.02,18.53,61255
-8.14,7.51,-2.65,0.15,1.46,-0.58,-21.53,18.34,15.77,61290
-6.96,7.70,-1.63,0.25,0.94,-0.77,-22.30,18.96,13.69,61324
-10.34,17.88,5.08,1.42,0.71,-2.00,-22.86,19.34,11.66,61358
0.42,18.68,-1.99,0.28,-1.50,-1.68,-22.13,18.78,9.81,61392
-5.56,11.54,0.90,-1.42,1.53,-2.72,-24.01,16.49,8.97,61426
-2.28,8.74,-2.81,0.18,-0.16,-0.49,-24.52,14.63,8.46,61460
-1.33,11.86,-0.81,0.34,-0.12,-0.03,-23.50,15.23,7.75,61495
-2.96,8.57,-3.80,0.09,-0.29,-0.64,-23.72,15.54,7.04,61529
-5.52,5.94,-6.92,0.26,-0.12,-0.85,-23.31,14.82,6.23,61563
-4.54,8.24,-4.91,0.18,-0.26,-0.39,-23.17,14.10,5.06,61597
-6.79,7.76,-2.65,0.09,-0.18,-0.36,-21.89,13.58,5.54,61631
-6.91,6.78,-1.87,0.03,-0.32,-0.52,-21.47,13.20,4.69,61666
-5.14,8.15,-4.08,-0.18,-0.39,-0.56,-21.27,12.12,4.93,61700
-3.68,7.50,-4.40,0.09,-0.57,-0.22,-20.02,11.27,4.81,61734
-4.75,7.88,-3.72,0.30,-0.69,-0.07,-18.88,10.41,5.77,61768
-5.82,7.37,-3.31,0.27,-0.67,-0.11,-18.65,9.95,5.64,61802
-4.60,8.07,-2.17,0.29,-0.70,-0.23,-17.51,8.83,6.20,61836
-5.47,7.52,-2.93,0.15,-0.57,-0.28,-17.20,8.42,5.63,61871
-7.46,6.87,-2.10,0.24,-0.73,-0.13,-17.29,7.63,6.09,61905
-6.06,7.80,-2.02,0.13,-0.81,-0.35,-16.63,6.61,6.69,61939
-6.36,6.16,-3.53,0.01,-0.74,-0.38,-16.66,5.76,7.15,61973
-5.99,6.93,-3.63,0.15,-0.82,-0.14,-17.00,5.14,8.07,62007
-6.86,6.54,-3.34,0.25,-0.93,-0.07,-17.13,5.06,8.52,62041
-4.79,7.60,-2.23,0.30,-1.14,-0.02,-16.60,5.29,9.41,62076
-4.92,9.91,-3.76,0.21,-1.20,-0.01,-16.22,5.39,9.70,62110
-2.77,9.11,-4.24,0.00,-1.17,-0.09,-15.67,5.54,11.01,62144
-4.42,10.45,-4.08,0.33,-1.22,0.37,-15.59,6.39,12.26,62178
-5.54,11.25,-3.88,0.18,-1.58,0.16,-14.75,6.96,13.46,62212
-5.88,11.80,-7.48,0.28,-1.83,-0.38,-13.34,7.25,14.64,62247
-11.10,10.12,-10.15,0.17,-1.53,-1.85,-12.42,7.56,17.39,62281
-8.88,11.94,-6.41,-0.10,-0.62,-2.55,-12.74,7.07,18.39,62315
-8.54,7.77,-7.09,-0.42,0.09,-2.44,-13.75,5.92,19.51,62349
-10.16,5.33,-5.92,0.16,-0.54,-1.56,-14.22,5.58,20.59,62383
-9.68,4.65,-3.76,0.36,-0.64,-1.00,-14.03,5.55,21.35,62417
-5.99,3.64,-1.01,0.06,-0.07,-0.39,-13.43,6.08,21.91,62452
-5.34,1.83,-0.35,-0.71,1.37,-0.12,-14.70,5.44,21.46,62486
-3.74,1.38,-0.92,-1.10,2.02,0.18,-16.57,5.00,21.10,62520
-2.39,0.30,-0.44,-1.40,2.34,0.66,-19.56,3.99,20.36,62554
-0.27,1.22,0.95,-1.85,2.86,0.90,-22.01,2.97,19.19,62588
-1.04,0.11,-0.83,-2.92,4.20,0.80,-26.82,0.34,16.15,62623
-4.99,-1.98,-3.04,-3.25,4.19,1.04,-31.03,-1.99,12.53,62657
-8.38,-4.85,-4.71,-2.71,3.00,1.41,-33.50,-2.98,9.32,62691
-9.30,-9.78,-5.88,-1.39,1.22,1.84,-34.81,-2.70,8.08,62725
-36.02,-20.13,-33.85,1.03,0.76,-1.60,-33.76,-1.74,8.32,62759
-20.94,10.15,-7.26,0.99,0.46,0.58,-33.24,0.19,8.83,62793
-4.38,9.95,1.14,-0.22,-0.10,0.52,-32.75,0.50,9.19,62828
-3.81,8.35,-1.49,-0.75,-0.16,0.61,-32.61,0.13,8.39,62862
-5.83,8.26,-2.32,-0.73,0.00,0.57,-32.51,-0.69,9.85,62896
-4.60,7.51,-2.06,-0.11,-0.32,0.38,-32.61,-0.42,10.04,62930
-3.91,10.62,-1.95,-0.01,-0.47,0.52,-31.82,3.27,10.64,62964
-2.14,10.47,0.66,-0.16,-0.30,0.79,-31.20,0.66,10.95,62999
-4.48,10.41,-0.86,-0.57,-0.22,0.85,-31.28,1.18,11.65,63033
-1.86,8.85,0.51,-0.83,-0.12,0.90,-31.06,0.86,12.63,63067
3.90,3.92,-6.28,-0.44,-0.34,0.36,-30.80,1.74,12.47,63101
6.80,30.86,1.00,1.27,-1.31,-2.17,-32.34,-1.39,12.23,63135
-14.09,1.41,-14.01,1.08,2.22,-2.37,-34.17,-2.92,10.42,63169
-12.92,7.14,1.70,0.88,-0.00,-1.22,-34.81,-2.37,10.44,63204
-3.22,3.79,-6.45,0.24,0.66,-1.61,-35.22,-4.14,10.00,63238
-9.52,6.62,-3.65,1.20,-0.10,-0.38,-35.63,-3.86,9.31,63272
-5.15,7.63,-4.14,0.37,0.11,-0.87,-36.55,-3.45,9.53,63306
-4.96,7.78,-3.82,0.54,-0.04,-0.77,-36.57,-4.17,8.37,63340
-2.46,6.94,-5.47,0.40,-0.17,-1.21,-36.52,-5.22,9.19,63375
-6.60,7.93,-5.21,0.39,-0.03,-1.42,-36.41,-5.77,9.30,63409
-2.96,10.79,-7.71,0.85,-0.48,-1.54,-36.17,-6.93,8.75,63443
-7.65,8.41,-9.46,0.62,-0.40,-1.88,-35.87,-8.01,9.65,63477
-8.20,10.73,-9.32,1.20,-0.94,-2.10,-34.80,-9.57,11.03,63511
-7.53,5.78,-8.70,1.39,-0.74,-2.46,-33.72,-11.63,11.97,63545
-1.79,-1.53,0.62,1.04,-0.80,-2.38,-32.24,-12.55,12.58,63580
3.20,-0.07,-4.85,0.55,0.02,-2.80,-31.98,-15.08,12.19,63614
-11.96,-4.11,-4.91,0.05,2.06,-2.80,-33.44,-17.73,9.95,63648
-2.66,4.47,-4.01,1.95,-1.09,-1.70,-31.76,-18.27,11.06,63682
-8.36,0.11,2.51,0.97,-0.77,-2.34,-30.06,-19.69,12.42,63716
-7.67,-1.77,-1.86,0.19,0.85,-3.50,-29.00,-21.73,11.88,63750
-6.93,-0.64,-5.07,-0.58,0.97,-3.89,-28.43,-26.32,10.60,63785
-11.09,-1.77,-6.79,-1.41,1.34,-4.08,-27.13,-31.38,7.79,63819
-9.22,0.63,-7.88,-2.59,0.84,-4.09,-24.35,-37.09,4.09,63853
-8.60,0.06,-7.58,-3.09,1.32,-3.78,-21.63,-41.90,-1.14,63887
-5.41,-2.67,-10.82,-3.23,1.52,-3.19,-19.47,-45.32,-5.77,63921
-1.26,-7.00,-13.89,-2.56,1.48,-2.48,-16.57,-47.37,-11.09,63956
-0.82,-5.80,-13.44,-1.67,1.03,-1.78,-14.82,-47.63,-14.73,63990
-2.64,-3.56,-9.69,-0.83,0.65,-1.09,-13.45,-47.66,-15.95,64024
-3.68,-2.90,-4.99,-0.65,0.91,-0.95,-11.81,-47.37,-17.76,64058
-3.84,-4.73,-5.59,-0.74,0.95,-0.98,-10.89,-46.89,-19.20,64092
-4.24,-2.29,-7.03,-1.78,1.36,-1.46,-9.31,-46.68,-21.79,64126
-3.39,-2.42,-10.92,-2.16,1.21,-1.20,-7.41,-46.21,-24.82,64161
-3.36,2.97,-17.12,-0.20,-0.89,0.33,-7.41,-45.86,-25.74,64195
2.25,-2.25,-11.56,0.93,-0.94,1.69,-9.72,-44.97,-23.28,64229
-0.75,5.77,0.86,0.82,-0.54,1.81,-11.27,-44.65,-22.67,64263
-4.49,-2.15,-9.91,-1.56,1.51,1.81,-13.58,-43.47,-25.21,64297
-8.81,-5.85,-17.11,-0.84,0.66,1.17,-15.93,-41.57,-27.24,64332
0.95,-2.18,-9.16,-0.29,-0.41,1.01,-16.52,-41.60,-27.57,64366
-1.01,-0.21,-9.72,-1.07,-0.24,0.67,-17.99,-40.70,-28.87,64400
-1.26,-0.31,-9.69,-2.19,0.07,0.15,-17.90,-40.34,-31.09,64434
-0.76,1.53,-9.28,-2.66,0.12,-0.10,-17.96,-38.67,-33.67,64468
0.57,3.65,-8.80,-2.94,0.17,-0.08,-17.29,-37.24,-36.67,64502
-9.12,2.01,-7.02,-2.86,-0.27,-0.05,-17.74,-35.85,-38.53,64537
-0.71,3.50,-5.80,-2.59,-0.06,0.51,-17.36,-33.59,-42.28,64571
0.92,5.73,-6.09,-2.47,-0.27,0.71,-18.61,-30.96,-44.64,64605
0.33,6.69,-6.42,-2.49,-0.34,0.88,-19.16,-27.99,-45.95,64639
-0.77,5.95,-4.97,-2.57,-0.24,0.95,-19.91,-24.03,-47.73,64673
2.98,12.61,-8.40,-2.24,0.29,1.48,-19.89,-21.44,-48.61,64708
-6.22,7.63,-6.40,-1.45,0.08,0.82,-19.54,-19.12,-49.63,64742
0.98,10.37,-2.89,-1.83,0.38,1.17,-20.30,-16.09,-49.58,64776
-0.34,9.04,-4.05,-1.94,0.39,0.83,-19.41,-13.86,-50.72,64810
-0.16,8.75,-3.25,-2.02,0.51,0.65,-18.53,-11.25,-51.89,64844
-0.34,7.71,-3.05,-2.41,0.71,0.42,-18.50,-8.75,-52.29,64878
-0.08,7.20,-3.09,-2.51,0.69,0.16,-17.52,-5.88,-52.41,64913
-0.63,6.70,-2.99,-2.24,0.28,-0.04,-16.44,-3.03,-52.69,64947
0.21,6.86,-2.78,-1.77,-0.20,-0.14,-16.62,-0.82,-51.71,64981
0.57,6.48,-2.76,-1.48,-0.22,-0.31,-17.35,1.05,-51.80,65015
18.58,19.64,-12.66,-1.13,-1.80,-0.60,-18.15,2.00,-51.24,65049
1.75,9.34,0.41,0.33,-1.13,0.77,-18.84,2.29,-50.39,65083
1.98,9.33,-1.13,-0.38,0.33,0.25,-18.33,3.00,-50.13,65118
1.21,10.03,-1.94,-0.47,1.13,0.16,-17.30,3.27,-51.49,65152
0.85,9.66,-0.52,-0.37,0.63,0.06,-15.87,3.73,-51.05,65186
1.08,9.80,-0.74,-0.46,0.49,-0.08,-14.64,4.74,-51.15,65220
1.00,9.34,-0.16,-0.16,-0.17,0.04,-14.88,5.17,-51.13,65254
1.75,10.23,0.89,-0.08,-0.25,0.12,-14.91,5.41,-51.64,65289
1.65,9.63,0.89,-0.28,0.18,0.02,-14.66,5.95,-51.43,65323
1.05,9.67,1.15,-0.19,0.33,0.07,-13.90,6.58,-51.96,65357
0.59,9.39,1.20,-0.04,0.20,0.18,-13.75,6.26,-51.18,65391
0.87,9.30,1.11,0.17,-0.18,0.26,-13.20,6.46,-50.91,65425
1.10,9.42,1.08,0.28,-0.50,0.29,-13.36,6.77,-51.26,65459
1.25,9.70,0.58,0.35,-0.67,0.27,-13.77,5.74,-51.10,65494
1.76,9.75,-0.26,0.42,-0.76,0.28,-14.37,5.63,-50.75,65528
2.04,9.74,-0.61,0.49,-0.77,0.26,-15.26,4.97,-50.82,65562
2.34,9.66,-1.06,0.48,-0.65,0.19,-16.19,4.47,-50.58,65596
2.50,9.71,-1.08,0.47,-0.62,0.17,-16.44,4.33,-49.94,65630
2.75,9.73,-1.74,0.37,-0.54,0.06,-16.82,4.28,-50.69,65665
2.96,9.39,-2.46,0.16,-0.45,-0.07,-17.32,3.98,-50.44,65699
2.95,9.63,-1.16,0.24,-0.35,0.01,-17.99,4.00,-49.75,65733
2.94,10.49,-0.58,0.20,-0.05,-0.03,-17.70,3.67,-50.15,65767
1.94,9.61,-1.55,0.03,0.40,-0.30,-17.32,3.76,-50.35,65801
1.83,9.91,-1.33,0.04,0.30,-0.27,-16.72,3.58,-50.94,65835
1.50,10.55,-0.90,0.22,0.15,-0.32,-16.76,3.43,-50.76,65870
1.69,11.41,-1.25,0.38,-0.04,-0.41,-16.71,3.41,-50.76,65904
1.35,9.98,-2.06,0.35,0.13,-0.66,-16.47,3.23,-50.77,65938
0.80,9.47,-2.45,0.41,0.34,-0.79,-16.27,1.84,-51.67,65972
0.82,10.21,-2.10,0.50,0.44,-0.90,-16.40,1.20,-51.46,66006
0.50,9.70,-1.55,0.51,0.49,-0.94,-15.57,0.50,-52.27,66041
0.95,8.51,-1.26,0.49,0.53,-0.99,-14.91,-0.60,-52.50,66075
0.86,8.72,-1.07,0.54,0.16,-0.94,-15.24,-2.00,-52.88,66109
1.22,8.78,-0.47,0.52,0.08,-0.90,-14.78,-2.06,-53.54,66143
1.72,9.79,-0.37,0.53,-0.21,-0.83,-15.02,-3.08,-54.05,66177
1.00,10.30,-0.15,0.51,-0.27,-0.70,-15.40,-4.31,-54.11,66211
0.66,8.83,-0.55,0.47,-0.29,-0.63,-15.59,-4.60,-54.30,66246
1.27,11.08,-0.08,0.57,-0.45,-0.35,-16.19,-5.41,-53.95,66280
0.86,11.28,-1.51,0.88,-0.36,-0.44,-17.20,-6.12,-53.48,66314
-0.34,9.60,-1.08,0.59,-0.51,0.16,-17.35,-6.30,-54.14,66348
0.12,9.46,-2.13,0.48,-0.81,0.41,-18.31,-7.29,-53.90,66382
0.17,9.41,-2.22,0.35,-0.89,0.36,-18.63,-7.69,-52.85,66416
0.01,9.16,-2.68,0.31,-0.89,0.33,-19.16,-7.57,-53.23,66451
-0.17,9.13,-3.09,0.33,-0.68,0.27,-20.39,-7.44,-52.60,66485
-0.48,8.94,-3.67,0.44,-0.60,0.30,-21.02,-7.72,-52.34,66519
-0.83,9.18,-3.70,0.43,-0.49,0.12,-21.47,-7.76,-52.35,66553
-0.75,8.92,-3.91,0.35,-0.35,-0.04,-21.43,-8.40,-52.09,66587
-0.50,8.77,-4.11,0.47,-0.18,-0.14,-21.28,-8.65,-51.84,66622
-0.74,8.43,-3.77,0.64,-0.13,-0.32,-21.63,-9.95,-51.99,66656
-0.36,8.55,-3.91,0.89,-0.12,-0.41,-21.54,-11.06,-51.71,66690
-0.52,8.45,-4.10,0.98,0.03,-0.59,-20.49,-12.51,-50.82,66724
-0.74,8.74,-5.66,1.28,0.26,-0.66,-20.43,-14.57,-50.86,66758
1.09,8.74,-4.19,2.04,0.25,-0.47,-19.60,-16.88,-50.45,66792
-0.71,8.70,-5.14,1.90,0.20,-0.37,-18.77,-20.52,-50.09,66827
-0.01,8.47,-5.41,1.38,0.10,-0.03,-18.08,-22.67,-49.15,66861
0.19,7.86,-5.75,0.72,-0.10,0.30,-18.15,-23.53,-49.43,66895
-0.43,7.94,-7.31,0.37,-0.14,0.25,-18.14,-23.66,-49.02,66929
-0.34,7.63,-5.47,-0.40,-0.31,0.13,-19.12,-22.13,-49.52,66963
-0.68,7.61,-6.54,-0.65,-0.25,0.15,-20.15,-20.46,-49.85,66998
-0.95,7.77,-5.52,-1.38,-0.48,0.40,-20.75,-18.53,-49.99,67032
-0.47,8.15,-5.64,-1.20,-0.35,0.23,-21.51,-16.72,-50.22,67066
-1.35,8.92,-4.87,-1.18,-0.29,0.09,-21.88,-14.51,-49.97,67100
0.59,7.59,-4.29,-0.64,-0.27,0.00,-22.22,-12.86,-49.97,67134
-0.27,8.89,-4.68,-0.19,-0.19,-0.10,-22.41,-12.88,-50.04,67168
-0.07,8.15,-4.25,-0.10,-0.07,-0.10,-22.41,-12.48,-50.48,67203
0.29,8.44,-4.17,0.21,-0.03,-0.10,-22.36,-13.29,-50.67,67237
-0.05,8.42,-4.36,0.51,0.08,-0.23,-21.78,-13.69,-50.18,67271
-0.44,8.80,-4.61,0.96,0.09,0.09,-21.21,-15.62,-51.01,67305
-0.63,8.49,-4.93,0.63,-0.01,-0.00,-20.26,-16.73,-50.83,67339
-1.19,7.48,-4.78,1.11,-0.02,-0.01,-19.80,-18.18,-50.23,67374
-0.31,8.51,-6.22,0.86,-0.35,-0.11,-20.65,-19.56,-49.75,67408
-0.94,8.58,-5.38,0.07,-0.26,-0.33,-20.32,-19.26,-49.74,67442
-1.08,7.83,-5.90,0.13,-0.14,-0.63,-20.68,-19.56,-49.84,67476
-1.10,8.29,-5.90,0.16,-0.40,-0.42,-20.36,-19.98,-49.49,67510
-0.22,8.25,-6.46,-0.09,-0.24,-0.42,-20.64,-19.70,-48.89,67544
-1.14,8.25,-5.92,0.06,0.10,-0.63,-20.42,-20.34,-48.03,67579
-0.71,8.08,-5.34,-0.39,-0.01,-0.70,-20.24,-19.77,-49.75,67613
-1.30,7.60,-4.96,-0.43,-0.18,-0.35,-20.51,-19.15,-49.63,67647
-1.83,7.26,-4.87,-0.04,-0.09,-0.22,-20.45,-19.19,-49.63,67681
-1.16,9.05,-5.56,0.09,-0.11,0.13,-20.36,-18.56,-49.42,67715
-0.93,7.56,-5.33,0.05,0.03,0.16,-20.89,-18.50,-50.39,67750
-1.99,7.55,-3.96,-0.06,0.19,-0.55,-20.29,-18.63,-50.38,67784
-0.92,8.02,-4.47,0.22,0.24,-0.40,-20.07,-18.87,-50.41,67818
-0.81,8.25,-5.63,0.33,0.29,-0.76,-18.78,-19.25,-50.73,67852
-1.48,7.94,-5.22,0.53,0.14,-0.53,-18.39,-20.40,-49.91,67886
-0.57,7.95,-5.05,0.29,0.13,-0.26,-18.12,-20.56,-50.83,67920
-2.31,7.41,-6.11,0.84,0.23,-0.18,-17.64,-22.04,-50.48,67955
-0.98,6.81,-5.37,0.95,0.30,0.10,-16.97,-23.62,-50.41,67989
-1.06,7.06,-6.00,1.07,0.23,0.53,-16.35,-24.45,-50.39,68023
-1.62,6.99,-7.24,1.19,0.38,0.13,-15.90,-26.60,-50.34,68057
-0.18,6.84,-6.84,1.38,0.53,0.29,-14.13,-28.56,-49.49,68091
-0.63,6.04,-6.56,1.56,0.63,0.28,-13.40,-30.42,-48.98,68125
-0.04,5.74,-7.75,2.20,0.84,0.78,-12.04,-33.29,-48.28,68160
1.07,5.60,-7.73,2.13,0.72,1.07,-12.09,-35.62,-47.12,68194
0.84,5.59,-8.38,1.63,0.43,0.67,-11.58,-36.83,-46.32,68228
0.71,4.90,-8.82,0.92,0.05,0.35,-12.39,-37.53,-44.84,68262
0.68,4.90,-8.58,-0.20,-0.56,0.49,-13.21,-36.32,-44.97,68296
0.64,4.92,-8.61,-0.55,-0.66,0.27,-14.29,-34.29,-45.45,68331
-0.11,4.83,-7.58,-1.61,-1.40,-0.64,-16.33,-32.71,-45.25,68365
4.05,-3.93,3.44,-3.86,-1.94,-1.30,-17.45,-29.38,-47.24,68399
-0.57,5.92,-6.97,-0.91,-0.57,-0.32,-18.01,-28.11,-47.60,68433
-0.45,5.90,-6.35,-0.01,-0.25,-0.28,-18.01,-27.78,-48.26,68467
-0.65,5.70,-8.80,0.70,0.03,-0.12,-17.38,-29.03,-47.92,68501
-0.42,6.12,-7.75,0.76,0.08,-0.15,-16.97,-30.27,-46.90,68536
-0.39,5.42,-8.07,0.77,-0.01,-0.14,-16.88,-30.53,-47.00,68570
-0.10,5.51,-7.83,1.00,0.01,-0.08,-16.66,-32.23,-45.85,68604
-0.24,5.24,-7.94,1.09,0.11,-0.12,-16.16,-32.34,-45.16,68638
-0.23,5.19,-7.24,0.69,-0.03,-0.16,-16.76,-33.32,-44.71,68672
-0.16,5.50,-10.10,1.63,0.65,0.39,-16.34,-34.01,-43.54,68707
0.02,4.75,-8.48,0.30,0.02,0.13,-15.54,-35.14,-44.17,68741
0.09,4.55,-8.41,0.57,-0.04,0.00,-15.74,-35.06,-44.10,68775
0.14,4.49,-8.77,0.76,0.10,-0.06,-15.17,-35.71,-43.96,68809
0.03,4.09,-8.73,0.59,0.08,-0.06,-15.04,-36.07,-43.28,68843
0.06,3.92,-8.89,0.93,0.20,0.02,-14.44,-36.63,-42.39,68877
-0.14,3.58,-9.56,0.96,0.33,-0.05,-14.21,-38.26,-42.20,68912
-0.10,3.46,-9.12,0.06,0.09,0.05,-14.05,-37.66,-41.39,68946
0.26,3.53,-8.35,0.37,-0.25,-0.18,-14.06,-38.04,-41.57,68980
-0.08,3.81,-8.78,0.46,-0.31,-0.20,-14.34,-38.29,-41.26,69014
0.12,3.46,-8.96,0.21,-0.24,0.03,-14.91,-38.02,-40.00,69048
1.12,3.39,-8.83,-0.00,-0.04,0.11,-14.54,-38.41,-40.44,69083
0.91,-0.62,-4.00,0.31,0.03,-0.12,-14.24,-37.99,-40.78,69117
0.12,3.01,-9.12,-0.14,-0.06,-0.04,-14.24,-38.18,-40.51,69151
0.04,2.81,-9.23,-0.19,0.04,0.01,-14.32,-38.35,-40.84,69185
-0.36,2.94,-8.79,-0.06,-0.11,-0.09,-14.15,-38.37,-40.41,69219
0.12,3.44,-8.55,0.07,0.05,0.07,-14.26,-38.82,-41.25,69253
0.37,3.48,-8.81,0.40,-0.03,-0.04,-14.24,-38.15,-40.49,69288
0.32,3.36,-9.29,0.51,0.14,-0.07,-14.15,-39.08,-40.08,69322
0.33,3.52,-8.93,0.17,-0.21,-0.09,-14.34,-39.36,-39.68,69356
0.61,3.57,-8.85,0.02,-0.17,-0.04,-14.37,-39.16,-40.05,69390
0.46,3.81,-8.74,0.12,-0.21,-0.05,-14.07,-39.46,-39.92,69424
0.51,3.55,-8.97,0.26,-0.10,-0.06,-14.26,-39.51,-39.32,69458
0.75,3.45,-9.13,0.06,-0.11,-0.05,-14.16,-39.59,-39.01,69493
0.37,3.29,-9.08,0.13,0.03,-0.10,-14.03,-39.14,-39.23,69527
0.09,3.20,-8.91,0.16,-0.06,-0.08,-13.40,-39.16,-39.23,69561
0.18,2.93,-8.93,0.46,-0.14,-0.16,-13.99,-39.16,-39.16,69595
0.07,2.74,-9.50,0.55,-0.45,-0.43,-13.40,-39.39,-38.25,69629
-0.41,2.87,-8.81,0.66,-0.38,-0.28,-13.58,-39.77,-38.34,69664
