ax,ay,az,gx,gy,gz,mx,my,mz,timestamp
-1.13,-9.97,0.83,0.09,0.09,-0.06,-25.68,75.26,33.22,23011
-1.31,-9.76,1.03,0.16,0.10,-0.19,-26.35,75.62,32.64,23045
-1.15,-9.83,1.20,-0.08,0.09,-0.07,-26.62,75.31,33.18,23080
0.01,-10.00,1.64,-0.06,0.10,0.01,-26.60,74.79,33.29,23114
0.79,-10.25,0.71,-0.36,0.24,-0.13,-26.54,74.22,33.44,23148
-0.89,-9.57,-0.90,-0.31,0.24,-0.65,-27.21,72.27,34.17,23182
-2.29,-10.25,-0.99,-0.47,0.33,-1.04,-30.68,70.27,35.11,23216
-1.80,-9.69,-0.83,-0.16,0.45,-0.83,-33.76,69.06,34.96,23250
-0.41,-9.94,0.23,-0.13,0.39,-0.73,-36.44,68.17,34.95,23285
0.48,-10.34,0.19,-0.13,0.66,-0.89,-39.58,66.97,34.73,23319
1.49,-9.58,-0.94,0.04,0.93,-1.39,-43.93,64.83,33.25,23353
3.64,-9.60,-3.69,-0.05,1.46,-1.87,-51.13,61.77,31.45,23387
-4.19,-14.80,0.28,-0.67,3.78,-1.48,-59.22,58.02,25.14,23421
1.29,-6.79,-1.64,-0.01,1.99,-1.67,-65.93,53.55,20.64,23456
-1.67,-15.32,-3.28,-0.45,2.57,-1.15,-70.51,49.69,16.21,23490
-1.37,-17.53,-0.59,-0.81,2.51,-0.41,-72.16,47.57,12.23,23524
3.41,-9.29,2.56,-0.48,2.25,-0.94,-73.47,43.06,6.26,23558
-5.42,-10.52,-2.59,-0.63,-3.47,-1.96,-73.52,37.59,11.91,23592
0.86,-5.93,-3.71,-0.41,-5.20,-2.30,-69.00,31.64,24.88,23626
1.65,-4.44,-3.46,-1.27,-2.51,-0.22,-61.12,27.54,34.05,23661
-1.34,-4.85,-1.47,-1.89,0.98,1.84,-57.60,26.76,36.51,23695
-3.47,-6.54,1.16,-1.99,1.51,2.70,-55.79,27.86,36.38,23729
-0.99,-10.09,1.22,-1.87,0.39,2.89,-50.82,29.89,38.53,23763
0.26,-12.96,-0.01,-1.19,-0.45,2.50,-45.19,30.82,41.58,23797
2.42,-12.53,-1.58,-0.63,0.11,1.80,-38.21,31.20,44.31,23832
38.48,12.20,-22.05,-1.12,1.89,0.50,-37.27,30.80,43.06,23866
-2.49,-12.12,-3.50,-2.47,2.40,-0.02,-42.79,29.70,38.07,23900
3.27,-17.50,2.59,-0.06,0.74,0.13,-43.96,29.52,37.37,23934
3.51,-8.93,1.05,0.32,-1.24,-1.48,-43.03,29.41,38.16,23968
0.76,-5.00,-10.17,-0.60,0.73,-0.50,-43.39,27.89,38.54,24002
3.87,-9.75,-1.79,-0.89,1.19,-0.12,-44.48,25.91,38.31,24037
2.61,-9.05,-4.21,-0.49,0.62,-0.56,-45.69,24.23,37.64,24071
2.82,-7.63,-6.34,0.19,0.70,-0.49,-47.54,24.07,37.07,24105
3.01,-8.79,-4.49,0.02,1.21,0.28,-48.57,24.48,35.02,24139
1.33,-10.23,-2.97,0.19,1.28,0.55,-49.40,25.56,33.22,24173
1.24,-10.06,-3.39,0.44,1.12,0.62,-50.75,27.36,30.23,24208
0.77,-8.83,-4.30,0.54,1.35,0.98,-51.21,29.63,27.40,24242
0.65,-8.92,-3.37,0.46,1.48,1.19,-51.33,33.22,22.98,24276
1.64,-8.96,-2.44,0.36,1.19,0.98,-50.28,34.68,20.64,24310
2.29,-7.72,-4.62,0.53,1.16,0.64,-50.60,36.83,18.40,24344
-0.42,-6.54,-5.73,0.08,1.90,0.80,-50.72,38.57,15.61,24378
0.94,-8.49,-1.50,-0.11,1.59,0.53,-50.79,38.67,12.96,24413
5.70,-8.08,-2.48,0.16,0.72,-0.43,-50.75,38.40,11.21,24447
-0.39,-10.58,-1.07,0.35,1.67,-0.09,-52.15,38.29,7.99,24481
-1.09,-10.56,-2.20,0.42,1.22,-0.16,-52.82,38.03,5.77,24515
-1.08,-11.05,-1.87,0.47,1.08,-0.26,-53.29,38.26,3.84,24549
-4.07,-12.67,-3.25,0.97,1.28,-0.32,-53.96,38.23,1.18,24583
-12.85,-15.34,-8.52,1.10,2.31,-0.14,-54.41,39.20,-4.97,24618
-10.49,-26.65,-14.53,0.53,2.21,0.02,-53.76,38.19,-10.99,24652
14.09,-5.39,-0.98,4.42,1.80,-3.01,-55.04,34.48,-17.71,24686
1.11,-2.67,-4.06,1.66,-1.25,-1.34,-56.96,26.53,-16.28,24720
3.43,-2.08,-0.31,1.60,-4.66,-4.12,-55.47,19.45,-8.92,24754
5.73,0.57,-2.61,1.06,-6.07,-1.91,-51.04,15.21,1.48,24789
9.01,-4.03,0.59,0.59,-5.12,-0.82,-42.71,13.15,11.72,24823
3.70,-6.12,2.40,-0.00,-4.16,-0.09,-36.17,12.39,16.50,24857
5.80,-6.41,0.77,-0.48,-4.26,-0.46,-27.90,11.25,20.59,24891
14.80,-5.11,-5.74,-0.28,-3.18,-0.68,-19.76,8.36,23.22,24925
-0.47,-8.93,7.08,1.40,3.58,1.60,-21.70,8.37,19.63,24959
7.81,-8.48,5.61,0.23,0.76,-0.91,-22.46,7.88,18.12,24994
5.19,-6.52,4.67,1.17,1.52,0.24,-22.48,8.05,16.72,25028
8.69,-9.96,3.71,1.69,-0.23,-0.13,-21.98,9.89,15.95,25062
4.53,-10.21,-0.11,1.33,-0.30,0.10,-20.64,11.55,15.46,25096
6.41,-9.05,-2.48,1.40,-0.75,-0.01,-19.03,12.95,15.99,25130
4.33,-8.38,-3.81,1.87,-1.45,0.02,-17.16,15.16,16.81,25165
5.29,-11.44,-7.06,2.31,-2.37,-0.28,-14.48,18.56,16.44,25199
0.95,-9.59,-8.34,3.01,-3.39,-0.23,-9.72,22.49,14.79,25233
6.28,-10.84,-8.04,2.91,-3.15,0.33,-4.12,26.79,11.91,25267
-8.06,-13.19,-3.87,2.65,-3.20,1.19,1.42,29.93,8.14,25301
5.98,-9.23,-8.20,3.17,-5.01,0.23,6.12,32.21,1.51,25335
7.88,-7.77,-9.91,2.40,-4.14,0.25,10.36,32.97,-6.65,25370
0.07,-5.34,-8.04,1.41,-3.14,0.40,13.02,32.55,-12.58,25404
6.32,-10.89,-7.54,1.17,-2.67,0.44,14.66,30.62,-18.04,25438
5.32,-10.08,-7.79,1.37,-3.29,0.17,15.02,28.40,-24.03,25472
6.11,-4.49,-10.50,1.54,-4.18,-0.87,13.43,25.99,-28.65,25506
7.68,-7.93,-12.76,1.46,-3.63,-1.18,10.64,22.80,-33.59,25541
4.94,-5.85,-10.68,1.56,-3.69,-1.77,7.03,20.45,-36.23,25575
4.46,-5.84,-5.10,1.40,-3.01,-1.07,3.99,18.23,-41.01,25609
3.45,-12.11,-1.64,1.83,-4.09,-1.49,0.86,15.01,-39.61,25643
2.97,-7.07,-6.96,2.49,-5.43,-2.25,-4.18,11.78,-41.19,25677
6.52,-6.02,-11.27,3.04,-5.87,-2.43,-10.30,6.87,-40.81,25711
7.00,-2.60,-9.28,3.38,-5.84,-2.89,-15.23,1.86,-40.38,25746
6.07,-5.15,-5.59,3.52,-5.73,-2.50,-18.90,-2.62,-38.03,25780
4.28,-6.01,-4.75,4.32,-6.67,-2.96,-22.81,-7.75,-32.65,25814
1.62,-9.60,-4.12,4.68,-6.70,-2.62,-25.14,-11.84,-27.19,25848
-0.97,-12.70,-6.11,5.35,-7.22,-2.64,-25.80,-15.90,-18.74,25882
-2.71,-9.07,-9.69,5.73,-7.00,-2.46,-24.44,-16.92,-10.99,25916
-2.50,-13.15,-9.45,6.14,-7.13,-2.45,-21.82,-17.13,-4.03,25951
-4.19,-12.10,-13.88,6.86,-7.75,-2.98,-16.85,-13.56,4.30,25985
-4.82,-11.10,-17.94,6.78,-7.61,-2.50,-11.63,-8.97,9.30,26019
-3.29,-11.56,-18.42,6.61,-7.68,-1.85,-5.01,-1.87,12.22,26053
-4.52,-10.15,-17.97,6.56,-8.82,-1.94,4.74,7.82,10.73,26087
-10.53,-12.54,-14.38,5.99,-8.91,-1.48,13.17,14.56,2.95,26122
-7.55,-11.59,-17.51,5.16,-8.43,-0.68,20.11,18.84,-9.76,26156
-0.92,-6.24,-19.65,3.71,-7.11,0.21,22.76,18.27,-22.79,26190
2.59,-4.98,-15.77,2.58,-5.51,0.38,22.49,15.27,-31.89,26224
1.06,-4.64,-12.38,1.92,-5.06,0.06,19.85,10.36,-39.68,26258
7.07,-6.44,-13.41,1.38,-4.32,-0.73,17.01,7.22,-45.28,26292
-1.47,-8.68,-10.05,1.17,-3.91,-0.78,13.77,2.50,-48.54,26327
2.23,-5.27,-6.81,0.77,-3.21,0.47,11.52,-1.33,-50.10,26361
-0.96,-11.91,-11.29,0.46,-2.36,1.54,9.98,-5.47,-51.89,26395
8.46,-7.04,-13.02,0.69,-3.32,-0.42,7.00,-9.81,-52.75,26429
7.47,-5.65,-8.62,0.92,-3.20,-2.13,4.17,-13.90,-54.00,26463
2.66,-12.95,-5.97,1.42,-3.76,-2.10,1.17,-17.48,-53.35,26498
4.88,-9.93,-14.59,2.06,-5.61,-3.35,-3.70,-23.38,-50.94,26532
5.37,2.06,-15.79,1.94,-4.61,-3.72,-6.11,-27.05,-47.71,26566
5.88,-8.32,-7.81,1.96,-3.81,-3.03,-7.54,-30.77,-44.77,26600
6.86,-3.60,-0.81,2.87,-5.46,-3.79,-8.48,-34.38,-40.87,26634
-1.78,-12.93,-2.50,3.53,-5.18,-2.43,-9.31,-37.39,-36.89,26668
1.45,-10.93,-5.49,4.21,-6.34,-2.70,-9.40,-40.89,-29.63,26703
4.13,-5.00,-9.09,4.67,-6.43,-2.70,-8.24,-42.52,-22.46,26737
5.11,-4.12,-7.87,3.95,-5.13,-2.48,-6.62,-43.92,-15.73,26771
3.23,-8.08,-7.04,4.05,-4.89,-2.36,-2.76,-43.10,-10.55,26805
-1.85,-11.38,-9.16,4.57,-5.01,-1.66,0.83,-41.68,-5.12,26839
0.66,-11.97,-6.95,5.49,-5.86,-2.17,5.42,-38.16,1.74,26874
-2.89,-10.51,-13.20,5.95,-6.97,-2.12,11.22,-32.36,6.15,26908
-1.97,-8.63,-16.71,5.39,-6.42,-1.62,17.20,-26.70,7.72,26942
-2.98,-10.25,-14.09,5.27,-6.03,-1.05,24.29,-19.73,7.00,26976
2.48,-11.70,-7.67,5.32,-6.79,-0.86,30.55,-14.86,1.97,27010
-0.26,-11.12,-10.91,4.83,-7.52,-0.37,36.01,-11.34,-8.61,27044
-5.76,-7.27,-13.24,4.09,-6.54,-0.21,39.07,-11.84,-18.97,27079
-3.94,-7.57,-13.87,2.82,-5.48,0.48,38.37,-15.01,-28.19,27113
-1.66,-4.75,-14.13,2.18,-4.39,0.11,35.19,-20.21,-37.43,27147
2.57,-5.87,-10.10,1.82,-4.52,0.00,30.96,-24.61,-42.33,27181
2.66,-11.04,-12.21,1.86,-4.43,-0.86,25.90,-30.27,-46.99,27215
2.39,-10.34,-12.61,1.90,-5.08,-2.42,20.18,-33.91,-49.12,27250
2.00,-8.01,-13.98,1.94,-5.19,-2.31,15.20,-37.61,-49.40,27284
3.45,-8.25,-11.53,2.20,-5.78,-2.66,11.37,-41.63,-47.15,27318
4.35,-7.11,-9.44,2.06,-5.43,-2.24,8.43,-45.19,-44.24,27352
2.35,1.85,-6.13,0.90,-2.37,0.46,7.15,-47.52,-42.34,27386
-2.09,-13.77,-1.46,-0.32,-0.79,2.34,3.49,-49.75,-41.36,27420
2.75,-11.33,-1.99,0.17,-1.46,1.46,0.69,-51.52,-39.36,27455
1.43,-6.83,-5.03,1.10,-3.18,-0.16,-1.45,-54.82,-35.33,27489
3.96,-7.67,-13.83,1.60,-4.93,-2.18,-0.91,-57.35,-32.91,27523
9.31,-11.53,-17.61,2.29,-6.56,-4.41,2.57,-60.08,-27.45,27557
5.13,-3.27,-12.69,2.40,-5.17,-4.76,11.97,-60.67,-24.01,27591
1.17,-10.60,-10.12,2.74,-4.65,-3.80,17.10,-59.75,-21.69,27625
2.34,1.06,-6.75,3.64,-5.40,-3.41,23.36,-57.78,-20.04,27660
-0.92,-8.90,-7.17,3.02,-4.21,-2.28,26.95,-55.89,-19.94,27694
-0.13,3.23,7.14,3.49,-4.29,-2.57,29.11,-55.26,-19.56,27728
5.09,-5.14,-9.16,3.40,-4.24,-1.67,31.47,-53.14,-19.45,27762
9.05,-3.58,-7.34,3.05,-3.27,-1.66,33.05,-51.93,-18.15,27796
5.40,-4.63,-5.14,2.95,-2.77,-1.47,34.36,-50.42,-17.60,27831
1.77,-9.25,-2.19,3.47,-3.09,-1.18,35.63,-48.95,-17.00,27865
2.42,-15.39,-5.36,4.09,-4.21,-1.46,36.98,-47.46,-16.35,27899
0.12,-17.22,-11.35,5.48,-5.66,-2.23,38.79,-43.96,-16.65,27933
0.81,0.21,-14.27,6.86,-6.81,-2.14,40.56,-39.97,-16.98,27967
-5.55,-16.06,-7.23,6.24,-7.81,-0.93,41.25,-37.17,-20.14,28001
-7.36,-10.69,-5.10,6.35,-8.47,-1.01,40.91,-34.55,-27.01,28036
0.26,-3.53,-10.28,3.80,-5.15,1.08,38.32,-34.80,-33.56,28070
4.59,-4.44,-8.53,2.04,-2.60,2.21,35.74,-37.90,-37.90,28104
8.11,-16.68,0.77,1.31,-2.23,1.47,32.37,-40.91,-41.55,28138
4.07,-7.22,-7.66,2.54,-4.43,-0.73,30.71,-42.94,-46.23,28172
1.85,-8.02,-14.06,2.73,-4.67,-1.43,26.75,-45.86,-50.07,28207
1.76,-11.35,-11.42,2.82,-4.82,-3.14,23.21,-48.47,-53.87,28241
3.22,-7.60,-11.81,2.90,-4.55,-3.05,19.77,-52.06,-53.55,28275
3.37,-6.23,-10.80,2.75,-4.23,-2.02,15.21,-56.84,-51.53,28309
5.88,-7.40,-6.18,2.85,-4.48,-1.91,11.39,-60.26,-48.42,28343
4.83,-5.93,-6.41,2.60,-4.38,-1.41,7.50,-64.13,-42.41,28377
1.48,-4.53,-8.52,1.80,-3.52,-0.40,4.56,-65.97,-38.61,28412
-2.36,-14.54,-4.44,0.41,-1.74,0.46,1.81,-67.32,-35.36,28446
-3.42,-14.66,-4.84,0.98,-2.43,1.05,-2.51,-67.38,-30.21,28480
-6.02,-11.49,-0.53,2.05,-4.27,1.65,-7.53,-67.19,-23.06,28514
7.24,-4.89,-16.09,2.38,-6.01,0.31,-10.03,-65.99,-10.19,28548
5.63,-2.51,-17.03,1.40,-4.40,-0.46,-7.78,-64.70,-5.29,28583
6.31,-8.34,-9.81,0.78,-3.10,-1.78,-3.05,-63.80,-1.52,28617
7.66,-9.33,-8.21,1.43,-3.98,-2.72,6.31,-61.96,2.08,28651
7.26,-0.08,-9.30,1.74,-3.81,-3.21,15.27,-59.27,4.36,28685
2.56,-4.84,-6.94,1.37,-2.98,-1.45,20.84,-57.45,4.33,28719
0.14,-10.03,-1.68,1.32,-2.98,-0.49,25.24,-55.77,3.46,28753
3.52,-7.96,-3.15,2.08,-4.20,-1.01,30.01,-53.49,2.41,28788
4.66,-9.02,-7.34,2.11,-4.43,-1.29,34.87,-51.21,0.34,28822
4.14,-5.25,-6.71,1.50,-3.34,-0.85,37.85,-49.97,-2.91,28856
5.50,-6.91,-5.73,1.26,-3.13,-1.21,40.63,-48.48,-5.63,28890
4.93,-10.49,-4.99,1.94,-3.78,-1.87,44.52,-45.43,-9.63,28924
2.12,-6.61,-6.07,2.35,-3.86,-2.25,46.95,-41.84,-12.96,28958
0.15,-8.60,-6.02,1.95,-3.13,-1.43,49.62,-39.58,-15.92,28993
2.26,-8.95,-3.07,1.61,-2.92,-1.01,50.37,-38.35,-19.77,29027
5.23,-4.68,-4.65,1.76,-3.00,-1.06,50.57,-37.37,-22.55,29061
4.51,-6.81,-6.73,1.70,-2.79,-1.17,50.94,-35.87,-26.57,29095
4.80,-9.10,-4.93,1.81,-2.18,-1.39,51.37,-34.89,-29.52,29129
-3.17,-12.14,-1.47,1.74,-1.59,-0.89,51.37,-33.37,-30.55,29164
-3.05,-10.72,4.60,2.08,-1.68,-0.32,50.79,-33.56,-32.17,29198
-5.24,-12.67,2.19,2.86,-2.89,-0.49,49.02,-35.27,-34.38,29232
-6.14,-17.92,-7.66,4.18,-4.83,-1.20,47.24,-36.36,-36.92,29266
-13.10,-20.75,-16.83,5.00,-5.51,-1.36,44.74,-38.19,-40.09,29300
-12.10,-27.55,-27.16,6.43,-7.75,-1.46,41.22,-39.58,-42.84,29334
-7.14,-3.21,-23.23,7.86,-9.56,-3.11,35.76,-40.59,-48.92,29369
-12.02,-17.90,-24.70,5.54,-9.80,-1.30,27.67,-43.48,-56.53,29403
-4.86,-11.06,-23.71,5.12,-7.86,-1.36,18.37,-50.64,-59.18,29437
8.67,0.38,-26.97,3.68,-5.39,-0.68,5.22,-55.69,-58.43,29471
21.38,3.36,-25.21,2.86,-5.00,-0.66,-4.43,-60.42,-52.98,29505
8.94,2.18,-3.60,1.03,-2.93,0.33,-13.65,-61.72,-47.09,29540
-24.88,-20.82,-3.62,-0.87,1.50,6.15,-20.32,-57.98,-49.46,29574
-7.26,-21.50,1.38,0.22,-1.38,2.03,-29.85,-53.42,-48.28,29608
-0.18,1.84,-5.19,1.59,-3.31,1.76,-37.52,-49.97,-40.40,29642
3.33,-4.50,-11.83,1.26,-3.33,3.18,-44.94,-45.18,-32.56,29676
7.40,-14.76,-20.40,-0.28,-1.40,2.10,-49.97,-38.10,-27.55,29710
20.50,-7.99,-4.67,0.19,-0.01,-0.35,-50.69,-36.42,-24.93,29745
22.97,-7.87,-5.72,0.77,-0.18,-2.12,-49.37,-38.40,-22.65,29779
6.93,8.23,-2.67,1.33,-1.64,-3.27,-45.50,-43.48,-18.33,29813
7.01,-16.09,-1.69,0.96,-2.57,-1.92,-43.10,-45.69,-14.26,29847
4.52,-23.14,0.83,0.93,-2.06,-2.19,-40.46,-48.20,-9.44,29881
-5.79,-10.75,-3.44,1.11,-1.58,-3.00,-34.61,-50.89,-5.70,29916
-5.58,-5.16,1.53,0.58,-1.09,-1.01,-31.23,-51.04,-2.56,29950
-12.04,-13.00,6.43,1.16,-1.81,0.92,-31.10,-47.41,2.41,29984
-7.82,-19.10,-1.36,3.26,-6.16,-0.28,-26.76,-42.88,12.58,30018
-4.14,-7.17,-13.92,3.60,-8.21,-1.63,-16.28,-37.52,22.77,30052
1.87,-4.88,-28.96,2.70,-6.04,-2.49,-0.41,-30.99,27.10,30086
10.35,-3.70,-15.49,2.61,-4.24,-3.05,10.49,-25.01,27.73,30121
10.51,1.68,-6.63,2.15,-3.26,-2.73,19.37,-19.29,25.45,30155
4.50,-6.41,-4.15,1.69,-3.14,-1.82,23.82,-15.14,23.08,30189
4.54,-8.75,-6.75,2.17,-3.57,-1.59,29.51,-11.24,19.47,30223
2.77,-8.02,-6.64,2.28,-3.46,-0.85,34.73,-7.26,15.14,30257
4.67,-5.17,-0.64,1.64,-3.68,0.10,38.13,-5.89,8.80,30291
3.27,-14.95,-0.40,1.40,-3.91,0.19,42.14,-5.22,1.80,30326
1.98,-6.95,-6.98,2.71,-5.25,-1.63,44.84,-2.92,-6.99,30360
2.27,-5.42,-11.65,2.38,-4.21,-1.19,45.67,-1.56,-15.42,30394
1.64,-11.71,-6.73,2.47,-4.07,-1.24,45.21,0.32,-23.75,30428
1.40,-9.35,-5.04,3.72,-5.28,-2.15,43.22,1.20,-31.44,30462
0.85,-7.37,-9.67,4.15,-5.55,-2.43,39.32,0.85,-41.44,30497
0.10,-9.54,-8.04,4.34,-5.51,-2.72,33.46,-0.25,-49.61,30531
-3.90,-11.18,-9.89,5.22,-5.66,-2.87,27.27,-2.60,-54.97,30565
-4.11,-11.63,-12.24,5.83,-5.98,-2.41,18.61,-7.73,-60.92,30599
-1.49,-15.12,-15.00,6.25,-6.48,-1.99,10.19,-14.22,-64.19,30633
-2.34,-17.11,-20.35,6.96,-7.20,-2.15,1.05,-21.54,-63.56,30667
-0.99,-8.25,-22.02,7.40,-8.55,-1.76,-11.68,-32.42,-58.32,30702
-5.72,-14.89,-15.44,6.34,-9.47,-1.37,-22.65,-39.84,-48.04,30736
0.28,-6.75,-18.79,5.56,-8.69,-1.20,-30.02,-45.21,-31.09,30770
4.25,-0.70,-16.54,3.41,-5.72,-0.20,-32.13,-45.57,-19.09,30804
-0.89,-7.60,-8.71,1.80,-4.67,1.36,-34.11,-42.98,-9.89,30838
3.41,-7.59,-5.61,1.94,-4.95,0.80,-33.03,-39.58,1.61,30873
8.16,-1.43,-10.32,1.77,-5.31,-0.11,-28.34,-36.09,11.69,30907
3.93,-5.75,-11.77,0.84,-3.57,-0.39,-22.81,-33.59,17.73,30941
-0.17,-8.33,-6.70,0.32,-2.37,-0.21,-17.42,-32.24,21.63,30975
-1.96,-11.60,-5.06,0.64,-2.52,0.27,-12.06,-29.92,24.31,31009
6.68,-5.27,-5.86,0.92,-3.72,-0.69,-2.10,-27.62,27.17,31043
4.12,-7.63,-9.33,0.81,-3.79,-1.40,7.66,-26.07,27.86,31078
5.04,-9.05,-10.23,0.92,-3.39,-2.44,16.18,-23.81,25.88,31112
3.89,-4.29,-9.40,0.90,-3.08,-2.38,25.17,-20.53,22.87,31146
6.25,-9.01,-11.67,1.37,-3.15,-2.11,30.96,-17.82,18.81,31180
10.52,5.93,-12.98,2.29,-4.88,-5.06,37.27,-12.60,12.95,31214
6.74,-3.46,-5.63,2.34,-3.29,-3.62,41.58,-4.41,7.13,31249
8.87,-6.39,-0.09,2.47,-4.12,-3.43,42.58,2.22,1.43,31283
6.35,-6.68,0.41,2.30,-4.91,-3.11,43.42,9.19,-7.82,31317
2.95,-11.76,-2.29,2.88,-5.29,-2.85,42.37,13.69,-17.58,31351
1.53,-8.53,-5.69,4.29,-6.25,-3.25,38.89,16.66,-28.88,31385
-3.26,-10.02,-4.45,3.99,-5.22,-1.73,32.23,17.45,-40.43,31419
2.55,-11.42,-0.77,4.43,-6.45,-2.06,25.01,16.44,-49.80,31454
3.19,-4.65,-9.00,5.07,-7.17,-3.35,14.67,11.40,-58.59,31488
-1.54,-11.81,-7.18,5.42,-5.81,-3.59,1.81,4.85,-63.05,31522
-6.42,-16.16,-7.01,6.16,-6.13,-3.73,-8.65,-2.43,-64.50,31556
-13.13,-18.16,-12.07,7.64,-7.78,-3.31,-21.10,-14.12,-60.04,31590
-15.11,-17.61,-20.86,8.44,-9.14,-1.76,-31.72,-22.39,-51.89,31625
-19.84,-17.48,-23.81,8.66,-11.53,-1.23,-41.64,-27.35,-34.81,31659
-14.49,-20.08,-31.83,7.46,-12.67,-1.67,-45.05,-27.83,-6.23,31693
-7.38,-11.59,-35.47,5.90,-11.59,-2.75,-35.60,-23.02,15.73,31727
4.94,1.95,-33.35,4.14,-6.93,-1.29,-17.80,-16.43,25.99,31761
-2.04,-5.17,-16.77,2.35,-4.25,-0.17,-5.83,-11.59,27.20,31795
3.36,-8.45,-8.17,1.97,-5.06,0.06,5.90,-11.22,25.94,31830
2.01,-6.90,-5.45,1.54,-4.06,2.00,16.97,-12.92,22.11,31864
6.75,0.78,-17.45,0.78,-3.67,0.75,23.57,-15.61,17.57,31898
10.19,-0.93,-22.72,-0.11,-1.84,0.29,27.96,-19.04,14.09,31932
4.52,-12.91,-9.86,-0.70,0.76,1.15,28.92,-23.14,14.66,31966
13.67,-22.05,-0.40,0.85,-2.53,-1.96,31.82,-23.41,12.42,32000
2.62,-7.40,-6.29,1.58,-3.44,-4.31,36.52,-19.22,8.48,32035
3.45,4.34,-3.07,0.52,-1.90,-0.99,39.02,-17.87,5.19,32069
-0.97,-12.13,4.56,0.70,-1.68,1.30,39.90,-20.36,3.05,32103
3.30,-17.17,0.26,2.06,-5.51,-0.99,42.65,-21.54,-4.06,32137
3.09,-3.98,-21.07,2.31,-6.70,-3.81,45.32,-18.69,-12.66,32171
3.87,5.56,-19.42,2.22,-4.92,-4.25,46.23,-13.56,-21.08,32206
1.80,-12.76,-3.39,2.31,-3.93,-2.57,45.64,-10.58,-26.19,32240
2.82,-7.66,-2.94,3.35,-5.95,-3.82,43.69,-7.66,-34.52,32274
3.86,-2.92,-7.14,3.04,-5.20,-2.78,39.13,-5.80,-43.09,32308
1.44,-4.99,-4.38,1.93,-3.23,-1.51,36.00,-5.90,-47.98,32342
4.44,-11.71,-0.47,1.91,-3.15,-1.17,32.62,-6.53,-51.97,32376
1.79,-9.65,-2.88,2.55,-3.89,-1.49,27.92,-8.83,-56.62,32411
1.61,-5.99,-7.88,2.03,-2.96,-1.33,24.03,-10.52,-58.84,32445
1.60,-12.15,-6.34,2.46,-2.97,-1.58,19.01,-12.66,-60.87,32479
-0.27,-10.96,-5.35,4.11,-4.63,-2.85,13.01,-16.78,-62.25,32513
-0.77,-9.46,-10.22,5.17,-5.61,-2.85,5.77,-22.05,-62.79,32547
-2.23,-12.24,-13.23,5.56,-5.81,-2.43,-4.00,-30.23,-59.11,32582
-2.52,-12.34,-12.54,5.84,-6.06,-1.78,-11.30,-36.00,-51.94,32616
-7.52,-16.61,-15.22,6.07,-6.87,-1.22,-18.53,-40.47,-42.14,32650
-10.95,-13.94,-16.59,6.52,-9.23,-1.68,-24.52,-42.85,-23.65,32684
-5.01,-8.57,-19.03,5.82,-9.29,-1.26,-23.36,-41.33,-8.20,32718
-0.39,-6.53,-27.06,4.40,-8.22,-1.12,-17.42,-37.78,3.32,32752
5.14,0.06,-17.98,2.86,-5.61,-1.10,-11.96,-35.43,9.82,32787
1.11,-5.30,-7.14,1.78,-4.42,-0.13,-7.04,-33.35,12.13,32821
-4.98,-8.55,-1.67,1.72,-4.62,0.32,-1.55,-31.64,14.50,32855
-6.28,-3.19,-8.72,0.97,-3.17,1.73,2.43,-30.72,15.24,32889
1.01,-6.92,-15.56,0.28,-2.42,1.17,4.66,-31.41,16.05,32923
2.99,-8.71,-14.50,0.16,-1.83,-0.80,7.91,-32.05,15.24,32958
8.83,-11.60,-5.98,1.21,-3.90,-3.18,13.49,-31.37,14.89,32992
4.14,-8.92,-12.53,2.63,-6.09,-5.68,24.20,-25.71,11.46,33026
-0.82,-1.35,-17.45,3.98,-7.00,-5.37,32.29,-18.97,6.37,33060
7.23,-2.60,-16.43,4.14,-6.05,-4.22,36.96,-12.28,-1.61,33094
6.99,5.19,-11.61,3.89,-6.12,-4.13,40.46,-5.96,-10.71,33128
3.69,-4.17,-7.62,4.05,-6.10,-3.39,39.90,-1.24,-19.98,33163
3.70,-9.63,-1.34,4.83,-6.33,-3.05,36.77,1.74,-30.39,33197
6.81,-3.03,-7.11,3.98,-6.87,-3.17,32.10,2.21,-40.13,33231
6.72,-4.00,-5.64,3.66,-5.11,-2.26,26.72,1.64,-46.13,33265
7.42,-6.31,-5.20,3.33,-4.28,-2.33,19.72,0.12,-51.43,33299
4.74,-8.36,-4.20,3.52,-3.86,-2.39,15.05,-1.80,-54.84,33333
1.98,-9.74,-3.67,3.56,-3.60,-2.25,10.00,-5.26,-56.85,33368
2.58,-12.25,-4.68,3.90,-4.09,-2.33,3.11,-10.10,-58.55,33402
3.65,-6.16,-7.35,5.18,-5.01,-2.96,-3.10,-16.65,-57.94,33436
1.49,-10.14,-9.44,5.15,-4.80,-2.33,-9.76,-23.81,-53.99,33470
-1.08,-8.52,-10.50,5.35,-5.26,-2.07,-15.78,-29.51,-48.86,33504
-0.36,-10.29,-12.73,5.15,-5.72,-1.60,-20.27,-34.24,-40.85,33539
0.95,-8.92,-10.05,4.76,-6.10,-1.49,-24.17,-37.18,-30.15,33573
-1.42,-7.15,-8.37,4.27,-5.53,-1.09,-26.16,-37.85,-21.22,33607
1.01,-4.77,-11.90,3.32,-4.83,-0.76,-26.50,-36.98,-13.62,33641
4.28,-5.99,-8.12,2.58,-4.19,-0.24,-25.90,-35.02,-5.29,33675
4.12,-8.16,-5.73,2.10,-3.71,0.21,-24.50,-32.32,-0.22,33709
-4.44,-12.05,-1.71,2.14,-3.95,0.69,-22.38,-27.51,5.54,33744
-3.41,-6.93,-3.62,2.32,-5.13,0.45,-18.61,-23.49,10.45,33778
5.09,-3.64,-13.13,1.47,-4.11,0.74,-14.03,-19.53,13.77,33812
3.39,-4.21,-19.15,0.13,-1.60,-0.88,-9.82,-17.80,14.60,33846
6.01,-5.45,-8.41,0.34,-0.24,-0.49,-8.30,-16.79,14.10,33880
7.07,-15.00,0.73,0.13,-0.51,-0.54,-7.25,-16.85,14.13,33915
2.07,-7.62,-1.58,1.34,-2.90,-2.37,-2.98,-15.92,13.87,33949
1.68,-4.90,-6.51,1.47,-3.03,-1.03,1.75,-13.96,13.49,33983
3.79,-11.94,-5.55,2.11,-4.12,-1.33,7.41,-12.00,11.63,34017
3.51,-4.12,-10.19,2.32,-4.91,-2.71,12.51,-9.75,9.91,34051
-0.00,-1.84,-8.69,1.44,-3.31,-1.12,15.67,-8.40,7.10,34085
-1.35,-12.72,-7.17,1.56,-3.57,-0.97,19.57,-7.47,3.71,34120
5.17,-10.77,-7.94,2.80,-5.62,-2.83,22.96,-5.69,-0.22,34154
7.36,2.64,-12.92,2.51,-5.05,-3.00,25.64,-2.78,-6.69,34188
6.05,-10.16,-6.98,1.53,-2.92,-1.60,25.86,-0.95,-9.79,34222
4.74,-9.99,-3.92,1.98,-3.12,-2.44,26.57,0.82,-13.21,34256
3.94,-3.82,-4.72,1.98,-3.15,-2.16,26.63,3.01,-16.98,34291
3.69,-7.30,-2.98,1.64,-2.48,-1.11,25.84,3.90,-20.08,34325
3.20,-7.27,-2.34,1.62,-2.87,-1.03,25.59,4.46,-22.87,34359
2.89,-8.36,-3.31,1.93,-3.91,-0.92,24.04,4.78,-27.43,34393
2.18,-9.96,-5.46,2.40,-3.96,-1.03,22.93,4.62,-31.39,34427
4.89,-7.16,-5.71,2.52,-3.51,-1.09,20.52,4.65,-36.39,34461
4.75,-5.61,-4.17,2.10,-2.79,-0.80,18.40,3.86,-38.69,34496
3.81,-9.59,-2.86,2.40,-2.98,-0.95,16.15,2.67,-41.79,34530
2.92,-12.80,-4.06,3.35,-4.16,-2.19,11.66,1.08,-44.81,34564
2.61,-6.77,-4.86,3.04,-3.40,-1.75,7.48,-1.08,-46.96,34598
2.21,-10.15,-2.80,2.84,-3.22,-1.50,4.36,-3.10,-48.57,34632
0.15,-9.38,-5.87,3.57,-4.03,-1.94,-0.79,-6.24,-49.90,34666
-3.23,-10.63,-12.70,4.00,-4.24,-1.50,-6.40,-9.24,-50.00,34701
-2.33,-12.64,-9.02,4.85,-4.09,-0.86,-11.40,-13.58,-46.95,34735
-4.67,-25.61,-15.14,6.65,-6.54,-1.05,-16.90,-17.33,-42.63,34769
-3.14,-24.03,-22.49,8.06,-9.18,-2.66,-22.13,-21.53,-33.69,34803
-10.47,-1.05,-20.94,6.01,-9.97,-2.13,-23.87,-24.32,-20.58,34837
5.00,-8.05,-17.62,4.34,-6.55,-1.27,-21.91,-23.27,-11.28,34872
0.49,1.37,-19.91,2.34,-4.20,0.58,-19.44,-20.77,-6.02,34906
5.60,-4.33,-0.81,1.82,-3.18,2.18,-16.52,-17.57,-3.49,34940
14.05,-7.07,0.27,1.47,-3.09,0.34,-12.88,-15.67,-1.15,34974
6.80,-3.94,-2.49,1.17,-2.47,-0.13,-9.72,-15.02,-0.57,35008
-2.13,-8.75,-6.94,0.82,-2.42,1.49,-6.64,-14.25,-0.15,35042
0.77,-10.95,-7.17,1.10,-3.50,0.27,-3.71,-13.97,0.35,35077
-5.14,-10.04,-8.99,0.98,-2.44,-0.34,0.54,-14.18,-0.83,35111
-2.62,-5.89,-3.21,0.79,-2.22,1.41,2.66,-15.16,-2.21,35145
9.72,-7.54,-5.30,0.66,-3.11,0.33,5.41,-17.07,-3.33,35179
4.77,-7.03,-10.39,0.67,-2.37,-1.14,7.86,-18.08,-5.28,35213
-2.36,-10.14,-7.90,0.35,-1.27,0.07,9.30,-19.82,-5.98,35248
5.72,-11.57,-2.98,0.40,-1.45,0.06,10.11,-21.85,-7.03,35282
5.51,-8.74,-5.08,1.04,-2.67,-1.56,11.08,-23.52,-7.99,35316
2.82,-5.95,-6.79,1.19,-2.89,-1.76,12.69,-24.07,-9.25,35350
2.15,-7.26,-5.23,0.68,-2.07,-0.74,13.67,-25.29,-9.02,35384
3.31,-10.51,-5.21,0.73,-2.06,-0.66,14.29,-26.60,-10.16,35418
6.79,-9.13,-8.94,0.81,-2.42,-1.64,15.81,-27.27,-8.87,35453
10.60,-4.38,-7.35,0.68,-1.92,-2.53,17.52,-26.62,-10.44,35487
8.26,-4.27,-4.73,-0.20,-0.14,-2.12,18.80,-26.15,-10.63,35521
3.80,-10.76,-1.16,-0.03,-0.11,-1.95,19.31,-24.52,-9.88,35555
4.70,-2.94,-0.93,0.65,-1.42,-2.26,20.96,-23.87,-9.94,35589
0.25,-12.88,-1.85,0.88,-1.90,-1.22,21.76,-22.76,-10.57,35624
2.68,-10.03,-0.77,1.65,-3.41,-1.66,23.41,-21.98,-12.39,35658
0.38,-9.61,-4.72,2.15,-4.39,-1.49,24.52,-21.05,-14.69,35692
-0.47,-9.31,-5.31,2.14,-3.98,-0.53,25.75,-20.84,-17.67,35726
6.94,-10.02,-5.53,2.94,-4.91,-1.06,26.41,-21.03,-21.16,35760
7.54,-7.66,-6.10,3.33,-5.35,-2.21,26.35,-20.43,-24.04,35794
6.00,-2.92,-8.73,3.11,-5.11,-2.35,26.44,-19.92,-27.46,35829
6.28,-6.22,-7.09,3.14,-4.26,-2.30,25.45,-19.38,-30.84,35863
1.53,-12.93,-2.58,4.15,-5.26,-3.32,24.98,-18.75,-33.44,35897
-1.32,-10.92,-3.74,5.08,-6.41,-4.01,21.95,-18.25,-36.57,35931
-3.08,-10.45,-7.21,4.80,-5.70,-2.93,18.62,-19.28,-38.79,35965
0.57,-7.83,-8.60,4.35,-5.08,-2.54,14.59,-21.48,-39.84,36000
1.18,-6.26,-9.50,4.11,-4.77,-2.30,11.20,-23.12,-39.07,36034
4.02,-7.33,-10.58,4.31,-4.83,-2.52,7.89,-25.18,-38.85,36068
6.13,-4.11,-10.33,4.63,-4.66,-2.59,5.19,-27.67,-36.12,36102
3.64,-9.71,-4.97,4.24,-3.79,-1.67,4.17,-29.32,-33.40,36136
0.59,-12.29,-8.40,5.08,-5.40,-1.68,2.65,-31.41,-29.68,36170
-3.62,-12.13,-11.62,5.52,-7.21,-1.89,1.99,-32.72,-25.93,36205
-9.98,-6.65,-7.76,5.58,-7.07,-1.25,1.27,-33.32,-23.53,36239
-2.06,-4.59,-8.13,3.40,-5.89,0.48,0.69,-34.26,-21.69,36273
2.18,-5.37,-3.67,3.02,-4.78,1.60,-1.33,-34.00,-20.11,36307
9.10,-12.00,1.88,1.87,-4.01,1.36,-3.19,-34.27,-19.25,36341
2.46,-7.63,-10.66,1.56,-3.44,-0.07,-4.76,-34.58,-19.47,36375
-1.57,-5.00,-14.15,1.36,-2.80,0.15,-6.07,-34.14,-18.66,36410
0.09,-14.27,-5.85,1.78,-3.03,-1.17,-8.23,-34.20,-17.35,36444
-2.57,-14.34,-10.20,3.46,-6.18,-3.98,-7.15,-34.81,-13.37,36478
-10.66,-6.78,-17.86,5.60,-8.90,-5.34,-3.41,-35.21,-7.19,36512
-7.13,-6.52,-25.45,6.00,-8.84,-3.79,3.24,-31.32,1.15,36546
-4.26,-12.56,-22.43,5.24,-7.51,-2.26,9.40,-26.22,4.60,36581
-2.85,-8.21,-13.86,5.56,-8.04,-1.73,16.52,-19.66,5.07,36615
-1.06,-8.22,-23.67,6.44,-10.54,-2.29,26.00,-13.29,-1.61,36649
-4.24,-5.74,-26.34,6.59,-11.75,-2.81,31.60,-9.08,-13.08,36683
-3.22,-3.51,-21.10,5.78,-9.68,-2.47,31.31,-7.73,-26.41,36717
-9.72,-5.51,-10.00,4.56,-7.28,-0.60,28.46,-10.08,-34.71,36751
-16.21,-8.26,-5.03,3.90,-7.70,0.77,23.60,-14.75,-40.70,36786
2.63,0.51,-18.45,3.41,-7.68,-0.37,14.53,-21.22,-44.90,36820
12.34,2.52,-17.12,1.84,-3.85,-0.28,8.92,-23.85,-43.99,36854
-6.20,-36.06,-6.23,0.15,-0.76,1.43,6.59,-25.34,-43.20,36888
-29.73,-18.55,-9.86,1.65,-0.74,-1.56,4.46,-26.54,-41.42,36922
-26.44,-39.20,0.27,4.41,-4.66,-3.05,3.95,-28.37,-36.25,36957
-22.47,-11.85,-38.31,6.86,-11.09,-2.04,0.89,-30.33,-27.81,36991
3.65,-9.35,-39.16,5.29,-9.23,-4.34,2.94,-31.10,-22.03,37025
13.21,-2.08,-28.37,6.13,-4.28,-4.44,6.88,-30.24,-19.38,37059
19.99,13.01,-17.92,-0.06,0.31,-1.20,8.68,-30.52,-20.97,37093
-18.43,-16.47,-3.97,1.76,3.11,3.37,8.48,-31.95,-21.40,37127
-4.70,-22.02,0.30,3.15,-2.09,0.22,8.84,-33.81,-21.09,37162
15.33,-20.87,-10.12,5.78,-7.40,-2.32,9.92,-34.48,-20.10,37196
1.31,-12.89,-16.80,6.00,-9.15,-2.99,10.84,-34.73,-21.00,37230
15.28,-0.48,-10.87,3.01,-7.90,-2.23,11.03,-34.68,-22.98,37264
7.53,-3.53,-4.47,0.54,3.66,2.86,7.89,-35.52,-23.38,37298
-6.34,-9.58,0.78,-0.57,5.04,4.77,3.67,-35.37,-25.99,37333
-2.63,-12.12,-3.51,0.14,-2.82,2.62,-0.53,-33.97,-28.12,37367
-0.92,-6.90,-12.90,1.58,-5.59,1.57,-3.13,-32.48,-29.98,37401
5.60,-5.00,-14.14,2.81,-3.73,0.42,-4.76,-32.49,-28.81,37435
2.69,-3.28,-14.99,3.73,-2.60,0.35,-6.01,-33.73,-26.37,37469
-4.56,-3.51,-14.96,3.49,-4.38,0.14,-6.93,-34.08,-21.60,37503
-5.00,19.94,9.94,5.48,-3.45,-3.64,-6.58,-32.68,-17.79,37538
5.86,-18.42,-14.83,2.98,-3.07,-0.21,-6.28,-30.14,-13.71,37572
4.89,-12.45,-12.78,3.59,-3.71,-0.78,-3.65,-25.71,-9.09,37606
13.07,-0.48,-5.38,3.06,-4.28,0.37,0.35,-21.31,-6.42,37640
10.52,5.39,3.49,2.44,-3.18,1.45,3.96,-18.58,-5.73,37674
22.89,-4.78,-11.51,2.73,-1.92,0.74,8.35,-15.55,-5.99,37708
18.69,-9.24,-6.26,2.61,-6.66,-3.54,12.41,-13.87,-7.51,37743
9.11,-12.21,-13.11,3.45,-6.44,-1.37,17.42,-12.66,-11.33,37777
9.01,2.40,-5.31,2.00,-5.57,-1.28,19.94,-11.62,-15.42,37811
23.87,-5.97,1.26,1.26,1.29,-2.22,21.05,-11.17,-15.81,37845
-4.97,-11.23,4.96,2.34,0.70,0.16,22.33,-11.62,-15.16,37879
3.64,-10.71,0.00,2.74,-3.65,-1.74,24.48,-11.15,-17.61,37914
6.76,-9.13,-0.59,3.67,-2.83,-2.10,25.59,-9.72,-21.31,37948
6.05,-8.10,-0.80,3.08,-0.98,-1.81,26.83,-10.01,-22.54,37982
5.40,-8.09,-0.71,2.32,0.50,-1.24,27.71,-9.69,-21.94,38016
5.91,-7.32,1.57,1.88,0.99,-0.70,29.68,-9.51,-21.40,38050
2.92,-7.19,2.03,1.78,0.71,-0.37,30.90,-9.82,-20.80,38084
3.54,-6.76,1.69,1.39,-0.43,-0.17,31.82,-10.64,-20.24,38119
4.93,-6.18,1.70,1.33,-1.11,-0.13,32.30,-10.90,-22.07,38153
5.50,-5.50,1.47,1.29,-1.48,0.09,33.46,-11.39,-23.19,38187
5.10,-4.91,0.90,1.36,-1.07,0.45,34.07,-12.79,-24.82,38221
5.49,-5.35,1.60,1.09,-0.75,0.63,34.16,-14.66,-25.46,38255
4.73,-6.90,0.91,1.33,-0.96,0.73,35.12,-16.54,-26.92,38290
5.79,-7.94,0.27,1.49,-1.56,0.50,35.15,-18.50,-27.42,38324
5.95,-8.17,-1.65,1.98,-2.01,0.21,34.95,-20.45,-29.41,38358
6.15,-8.32,-1.72,2.42,-2.08,-0.11,34.52,-22.43,-30.99,38392
6.56,-8.38,-0.14,2.70,-1.76,-0.36,34.20,-24.47,-32.43,38426
8.56,-8.04,-0.69,2.91,-1.45,-0.27,33.38,-25.90,-32.26,38460
8.54,-8.32,0.88,2.82,-1.24,-0.11,33.02,-28.08,-31.96,38495
7.45,-8.50,0.93,2.62,-1.13,0.16,31.63,-29.60,-32.05,38529
5.26,-7.94,2.98,1.78,-0.65,0.82,30.53,-31.73,-30.88,38563
4.55,-7.84,3.00,0.69,-0.48,2.02,27.87,-33.78,-31.19,38597
2.23,-6.78,3.64,-0.03,-0.35,2.60,24.41,-36.20,-31.50,38631
1.19,-6.64,4.33,-0.66,-1.38,2.92,19.94,-37.71,-32.77,38666
-15.18,5.24,-3.06,-2.62,-3.59,4.40,12.77,-38.03,-36.12,38700
10.78,-14.76,0.22,0.39,-1.86,1.62,7.44,-37.46,-37.05,38734
0.85,-10.06,-2.98,-0.44,-2.33,2.09,1.55,-35.12,-38.03,38768
2.84,-18.90,-9.13,-0.51,-2.35,2.59,-2.81,-31.64,-38.83,38802
-0.30,-8.43,-13.43,-0.56,0.73,0.79,-4.56,-29.30,-39.54,38836
0.38,-6.71,-4.31,-2.13,2.07,1.09,-4.02,-24.48,-41.95,38871
1.11,-12.91,2.17,-1.87,1.07,1.02,-3.73,-20.34,-44.14,38905
4.14,-10.60,-0.12,-0.06,0.24,0.03,-2.91,-17.70,-44.02,38939
4.01,-9.12,-3.64,0.32,0.06,0.02,-2.53,-16.71,-44.68,38973
4.06,-8.75,-2.20,0.44,-0.23,-0.27,-2.28,-15.87,-45.47,39007
5.86,-10.46,0.02,0.02,0.08,-0.46,-1.36,-14.45,-46.81,39041
2.56,-9.74,-0.14,-0.55,0.42,-0.27,0.07,-13.67,-47.12,39076
1.34,-9.24,-3.35,-0.66,0.49,-0.00,1.56,-11.87,-47.81,39110
3.38,-8.46,-3.44,-0.60,0.42,0.24,3.17,-10.84,-49.01,39144
2.50,-8.97,-2.66,-0.52,0.17,0.50,4.19,-10.42,-49.06,39178
3.72,-9.69,-0.50,-0.37,0.20,0.32,5.64,-9.25,-49.55,39212
1.02,-10.11,-1.47,-0.27,0.32,0.20,6.65,-9.49,-49.97,39247
-0.72,-10.47,-3.11,0.02,0.19,0.12,7.53,-9.75,-51.30,39281
-2.65,-10.03,-3.54,0.41,-0.45,0.25,8.62,-10.71,-51.15,39315
-0.40,-8.67,-5.24,0.99,-1.40,0.15,8.56,-12.22,-50.70,39349
-0.07,-8.78,-4.86,1.21,-2.24,0.04,7.78,-14.41,-50.54,39383
-2.16,-10.61,-6.95,1.65,-4.10,-0.50,4.25,-17.41,-50.95,39417
-8.25,-10.09,-9.74,2.12,-5.65,-0.44,0.03,-20.17,-49.50,39452
-8.20,-9.43,-15.12,2.17,-7.43,-0.73,-5.71,-22.43,-46.57,39486
-7.06,-8.28,-16.87,2.17,-8.14,-0.70,-10.32,-24.26,-42.59,39520
-10.02,-8.61,-18.01,2.43,-8.54,-0.59,-14.03,-25.15,-38.56,39554
-6.03,-9.07,-21.43,1.76,-9.24,-0.54,-18.06,-25.11,-32.77,39588
2.48,-6.96,-19.06,1.11,-7.55,0.13,-20.43,-23.62,-28.73,39623
1.46,-6.40,-15.84,-0.10,-6.28,1.84,-23.08,-20.08,-24.85,39657
0.23,-9.96,-20.07,0.03,-3.96,2.11,-23.78,-16.68,-22.99,39691
5.96,-9.41,-16.65,-1.59,-3.02,1.40,-24.28,-12.60,-20.48,39725
7.67,-10.31,-15.68,-2.26,-3.44,0.85,-23.63,-8.81,-16.88,39759
13.99,-9.54,-14.10,-2.56,-2.52,0.58,-22.54,-7.31,-13.33,39793
14.91,-11.05,-9.94,-2.77,-1.44,0.10,-21.37,-7.19,-9.72,39828
14.51,-12.71,-4.65,-1.93,-0.16,-0.57,-21.25,-8.46,-7.88,39862
12.68,-14.97,1.37,-1.29,-1.22,-2.38,-21.03,-11.55,-6.14,39896
14.19,-8.77,1.89,-0.24,-3.38,-4.04,-19.77,-17.76,-3.48,39930
22.76,-1.50,3.20,0.16,-4.04,-5.00,-15.99,-22.84,-1.45,39964
39.16,-39.20,-3.26,-3.47,-1.08,-6.66,-12.20,-28.27,-1.58,39999
-21.35,-11.87,-12.45,-0.42,-1.66,-2.18,-9.05,-32.36,-3.55,40033
2.69,-10.67,8.34,0.61,0.12,-2.01,-4.34,-34.41,-4.90,40067
-2.81,-17.85,5.39,-0.03,-1.48,-1.01,-1.17,-35.66,-8.51,40101
0.19,-16.92,3.64,0.07,-1.08,-1.19,1.83,-35.76,-11.44,40135
-3.38,-12.68,-2.08,0.72,-1.02,-1.09,4.09,-35.52,-11.68,40169
-0.68,-10.21,-1.32,0.50,-1.00,-0.41,5.50,-35.09,-13.68,40204
2.25,-10.70,-0.81,0.37,-0.56,-0.16,6.56,-34.96,-14.94,40238
1.54,-9.05,-2.47,0.39,-0.43,-0.02,7.69,-34.17,-16.05,40272
2.04,-8.37,-3.19,0.49,-0.36,-0.11,8.54,-34.05,-16.88,40306
2.89,-8.36,-4.22,0.52,-0.30,-0.11,9.15,-33.34,-18.15,40340
4.05,-6.99,-3.94,0.60,-0.09,-0.33,10.61,-32.67,-18.97,40375
3.58,-8.12,-3.59,0.55,0.17,-0.41,11.21,-32.17,-19.77,40409
4.78,-7.84,-4.12,0.74,0.39,-0.77,12.93,-30.93,-20.32,40443
3.26,-8.12,-4.06,0.35,0.58,-0.75,14.37,-28.56,-21.91,40477
2.27,-10.69,-3.94,0.46,1.21,-0.59,15.78,-26.82,-22.61,40511
-2.17,-12.17,-5.19,0.55,1.73,-0.30,17.42,-23.91,-21.92,40545
-5.94,-13.30,-8.81,0.70,2.02,-0.03,18.25,-22.00,-21.48,40580
-4.00,-16.75,-5.84,0.22,1.53,0.13,18.52,-19.66,-19.53,40614
0.93,-21.51,-5.84,-0.07,2.32,0.52,17.42,-17.89,-18.96,40648
1.30,-13.30,-5.92,2.10,3.11,0.45,15.81,-15.95,-15.80,40682
17.22,-3.73,-22.47,-1.24,0.48,-3.46,13.86,-12.54,-13.75,40716
2.43,-10.19,-1.45,0.55,-3.71,-3.49,12.82,-9.24,-14.60,40750
0.65,-4.91,-5.35,1.77,-5.21,-2.54,11.55,-6.18,-14.63,40785
5.71,-3.97,-3.39,1.98,-4.48,-1.76,10.07,-3.30,-15.81,40819
4.53,-5.27,-3.05,1.98,-3.50,-0.73,8.16,-1.08,-14.38,40853
4.60,-6.21,-2.11,2.21,-3.32,-0.62,7.22,1.64,-14.47,40887
2.99,-7.43,-1.82,2.52,-5.28,-0.89,6.90,3.52,-14.35,40921
-4.79,-7.24,-2.13,3.26,-7.20,-1.39,6.37,5.50,-15.07,40956
0.27,3.10,-16.06,4.30,-9.74,-2.12,5.73,8.83,-15.62,40990
-13.40,6.18,-9.80,3.55,-2.59,2.57,5.06,10.87,-18.39,41024
9.20,-5.88,-0.56,4.06,-4.48,-1.14,5.25,13.68,-20.36,41058
7.36,-4.49,-8.27,2.37,-2.00,0.81,6.49,15.23,-22.35,41092
2.81,-4.41,-10.05,0.38,-0.06,2.04,9.09,16.78,-22.81,41126
6.33,-6.98,-7.36,-0.82,0.85,2.66,14.31,15.78,-21.21,41161
7.55,-11.35,-0.72,-1.32,1.86,2.54,18.90,15.51,-20.02,41195
4.37,-13.41,-2.02,-0.84,1.62,1.65,21.79,13.97,-17.06,41229
8.49,-9.28,-1.22,0.34,-0.03,-0.83,23.36,14.50,-18.08,41263
5.92,-8.49,-9.78,-0.58,-1.28,-1.98,22.67,14.78,-19.12,41297
5.43,-5.36,-5.68,-0.06,-0.31,-1.65,22.16,16.33,-19.58,41332
2.55,-3.69,-4.33,-0.04,1.29,-0.57,22.65,16.69,-19.07,41366
0.66,-5.49,-2.84,-0.45,1.10,-0.03,22.95,16.30,-18.27,41400
1.04,-6.26,-3.43,-0.66,-0.27,-0.14,23.65,16.94,-17.71,41434
5.52,-6.32,-3.24,-0.87,-1.22,-0.07,24.17,16.69,-18.01,41468
6.35,-5.64,-4.68,-1.36,-0.30,0.51,25.12,17.06,-18.61,41502
5.86,-6.69,-4.02,-1.46,0.72,0.86,25.55,16.03,-17.51,41537
3.63,-8.69,-2.36,-1.45,0.77,0.74,25.91,15.70,-15.93,41571
4.63,-9.41,-3.07,-1.43,0.26,0.35,27.05,15.36,-12.96,41605
3.69,-9.48,-2.24,-0.86,1.02,0.47,27.74,15.27,-11.65,41639
3.85,-9.57,-0.69,-0.95,2.26,0.67,28.46,14.88,-8.68,41673
6.41,-11.11,1.14,-0.18,3.35,1.10,28.50,13.90,-6.15,41708
-9.22,-5.68,1.38,0.42,3.05,2.33,28.63,12.42,-4.12,41742
-0.85,-16.04,-0.50,0.23,2.34,0.87,29.03,12.26,-1.37,41776
5.29,-10.64,3.95,0.84,0.81,0.25,29.92,11.74,-2.18,41810
-0.11,-6.23,1.54,2.03,-0.76,-0.73,30.56,12.07,-4.69,41844
-0.14,-8.70,-4.22,2.67,-1.67,-0.43,31.79,12.51,-9.00,41878
-1.51,-11.05,-6.16,2.84,-2.32,-0.22,32.93,12.25,-14.29,41913
-2.25,-13.73,-7.11,2.98,-3.18,0.34,34.43,10.71,-21.41,41947
0.54,-11.38,-6.96,3.75,-5.04,-0.54,34.73,8.97,-29.29,41981
2.10,-5.72,-17.63,4.12,-6.05,-2.29,32.56,8.24,-40.72,42015
3.88,-7.20,-16.52,2.87,-4.62,-1.69,27.99,6.64,-47.92,42049
-1.95,-8.03,-12.86,2.11,-3.50,-1.13,25.26,5.31,-52.88,42083
2.60,-5.13,-11.54,2.44,-4.61,-1.73,18.97,3.99,-57.57,42118
6.15,-2.02,-12.96,2.53,-4.83,-1.73,12.26,2.62,-61.05,42152
7.85,-1.48,-15.13,2.33,-4.88,-1.74,5.36,0.89,-62.73,42186
9.79,1.22,-11.75,1.87,-4.27,-1.63,-2.63,-0.99,-63.65,42220
8.54,-0.85,-8.24,1.69,-3.49,-1.28,-7.99,-2.24,-63.80,42254
8.29,-6.24,-4.32,1.43,-3.52,-1.15,-14.47,-3.76,-62.66,42289
5.42,-6.41,-2.84,1.82,-4.36,-1.72,-19.92,-5.66,-60.23,42323
5.73,-4.04,-2.81,2.37,-5.31,-1.96,-26.70,-9.59,-57.38,42357
7.58,-7.05,-4.95,2.59,-5.60,-2.37,-34.03,-13.94,-50.18,42391
3.59,-6.89,-7.59,3.34,-5.35,-3.06,-38.25,-20.10,-42.68,42425
12.34,-6.59,-5.84,3.31,-6.01,-3.90,-40.49,-28.03,-31.75,42459
11.80,-3.58,-9.15,3.79,-6.27,-4.65,-38.78,-34.58,-23.19,42494
10.37,-3.12,-4.51,3.88,-5.84,-4.91,-33.92,-40.62,-12.07,42528
4.52,-6.91,-0.15,4.41,-5.28,-4.74,-23.84,-45.73,-2.06,42562
0.11,-12.40,2.05,4.80,-5.91,-4.63,-14.97,-46.51,6.11,42596
-3.25,-16.63,-0.56,5.35,-6.33,-4.38,-1.61,-43.16,15.52,42630
-4.44,-14.62,-4.34,6.20,-6.83,-4.11,10.90,-36.23,19.45,42665
-3.64,-11.14,-7.35,6.23,-7.44,-3.87,23.00,-28.05,19.38,42699
-4.04,-9.65,-10.82,6.67,-8.27,-4.47,36.39,-16.62,11.21,42733
-2.56,-7.45,-12.89,6.11,-8.03,-4.41,43.50,-8.23,-1.04,42767
1.02,-4.54,-10.55,4.43,-6.42,-3.17,46.08,-4.22,-15.04,42801
-1.63,-5.43,-8.38,3.21,-4.89,-1.85,45.13,-3.43,-22.76,42835
-2.31,-9.62,-8.19,2.12,-3.79,-0.75,43.67,-4.69,-29.33,42870
4.15,-6.58,-6.33,1.99,-4.00,-0.87,41.64,-6.81,-35.14,42904
-0.90,-8.89,-3.58,1.64,-3.21,0.00,39.21,-8.56,-38.79,42938
-6.90,-10.15,-4.44,1.14,-2.31,1.28,37.83,-11.52,-40.70,42972
0.31,-8.46,-5.42,0.97,-2.92,1.22,36.13,-15.30,-42.02,43006
6.51,-4.35,-9.80,0.33,-2.97,0.03,34.83,-16.78,-45.21,43041
4.18,-3.31,-12.00,0.08,-1.41,0.32,33.85,-17.87,-46.43,43075
1.12,-14.36,-9.18,0.03,-1.38,-0.01,33.46,-18.08,-47.41,43109
0.18,-13.24,-5.68,0.32,-1.62,-1.89,33.28,-17.33,-48.63,43143
0.26,-6.19,-7.48,1.88,-4.12,-2.70,31.72,-16.05,-52.38,43177
0.49,-10.96,-11.03,3.00,-6.20,-3.50,27.04,-16.40,-56.72,43211
-1.57,-7.21,-21.13,4.15,-7.21,-6.14,18.93,-17.20,-60.71,43246
-4.66,-1.38,-14.23,3.86,-5.63,-4.61,11.82,-19.99,-62.19,43280
-1.62,-11.99,-6.14,4.52,-6.01,-2.82,5.10,-23.98,-63.23,43314
2.93,-3.47,-10.20,5.79,-8.15,-3.64,-5.95,-31.53,-59.44,43348
3.63,-7.26,-14.86,5.80,-7.79,-3.05,-13.93,-38.40,-51.86,43382
4.12,-1.88,-16.22,5.08,-6.10,-2.56,-18.09,-43.86,-41.49,43416
0.61,-12.47,-9.54,4.63,-4.70,-1.33,-20.51,-48.20,-32.59,43451
-2.85,-17.25,-9.67,5.89,-5.89,-1.55,-20.61,-50.39,-21.65,43485
-6.92,-24.08,-24.11,8.56,-8.96,-1.75,-15.42,-49.36,-0.69,43519
-8.26,-7.98,-28.08,8.54,-11.56,-3.19,-1.94,-42.71,13.27,43553
-7.71,-17.05,-24.67,7.95,-11.20,-2.91,16.21,-33.97,16.82,43587
-10.63,-1.73,-23.41,4.29,-5.82,0.74,28.60,-29.71,12.01,43622
-13.03,-4.96,-12.50,3.38,-3.97,2.85,31.70,-32.96,8.07,43656
9.31,-5.23,-6.06,3.33,-6.04,1.92,32.81,-38.64,4.06,43690
20.13,2.69,-13.98,2.71,-4.90,-0.74,34.10,-40.56,2.15,43724
7.52,-5.65,-17.32,1.71,-2.83,-1.03,34.62,-41.76,1.64,43758
5.48,-13.68,-13.01,1.24,-2.13,-1.97,35.95,-40.95,2.32,43792
6.42,-9.56,-10.75,1.98,-2.44,-3.93,39.73,-37.84,3.29,43827
8.98,1.28,-11.36,1.50,-1.86,-2.98,42.97,-32.30,4.75,43861
3.20,-8.59,-2.37,1.55,-0.36,-0.36,43.51,-31.10,7.12,43895
-7.05,-12.72,-2.98,2.26,-1.83,-0.29,44.56,-28.35,7.54,43929
-3.15,-14.67,-5.58,4.07,-6.90,-0.94,50.83,-24.66,1.49,43963
-6.08,-11.28,-13.57,3.39,-8.25,-0.18,56.43,-22.64,-8.13,43998
-1.37,-12.57,-15.43,2.49,-5.12,1.45,59.60,-24.86,-19.85,44032
-5.33,-8.35,-12.41,1.62,-3.78,2.36,59.92,-33.08,-28.72,44066
16.85,-1.98,-10.41,2.18,-5.17,0.16,57.53,-38.59,-38.67,44100
10.59,-4.74,-19.22,1.93,-4.52,-1.03,52.91,-41.52,-47.69,44134
4.90,-9.50,-14.58,1.50,-4.18,-2.21,48.71,-41.93,-54.40,44168
1.86,-14.79,-7.85,2.14,-4.41,-2.41,43.89,-42.82,-59.27,44203
5.82,-10.20,-13.76,3.07,-5.48,-3.54,36.88,-43.42,-61.44,44237
6.76,3.94,-14.10,2.73,-4.28,-3.03,31.39,-43.92,-63.68,44271
6.31,0.38,-5.06,1.70,-2.47,-1.00,26.41,-45.29,-63.69,44305
6.26,-10.65,0.74,1.66,-2.87,-0.58,22.84,-47.12,-63.59,44339
5.44,-8.81,-4.41,3.27,-4.87,-2.38,17.58,-49.78,-61.88,44374
7.55,-2.52,-11.41,3.28,-4.82,-2.88,13.23,-53.86,-59.11,44408
7.06,-4.16,-7.43,2.37,-2.60,-2.09,11.97,-55.79,-56.65,44442
3.54,-10.02,0.78,2.27,-2.65,-1.51,11.40,-57.67,-53.49,44476
4.59,-10.34,-1.86,3.34,-3.99,-1.88,9.60,-61.12,-49.63,44510
5.15,-8.34,-11.01,4.23,-4.54,-2.30,8.29,-64.86,-43.74,44544
3.41,-11.47,-12.18,4.62,-3.94,-1.65,9.25,-67.82,-35.94,44579
0.67,-12.20,-8.41,6.00,-4.93,-1.17,9.12,-69.48,-27.04,44613
-6.10,-11.52,-8.58,7.00,-9.07,-1.68,10.49,-70.39,-16.62,44647
-3.82,-6.34,-11.89,7.29,-9.50,-2.07,16.47,-68.90,-6.75,44681
-2.43,-6.70,-11.04,3.69,-5.39,1.26,17.70,-69.25,-2.65,44715
8.62,-9.42,0.58,1.56,-2.38,2.73,10.80,-71.24,-0.04,44750
17.62,-6.62,1.47,1.95,-3.53,0.04,8.51,-71.63,3.11,44784
5.60,-6.88,-15.63,2.67,-4.41,-2.73,13.39,-69.51,6.93,44818
1.90,-5.19,-15.96,2.13,-3.01,-2.43,20.58,-66.52,11.52,44852
1.52,-9.94,-5.10,1.13,-0.89,-0.84,22.52,-65.46,13.30,44886
-7.94,-21.17,-3.07,2.66,-3.03,-0.76,23.38,-64.16,17.42,44920
-2.33,-7.51,-13.02,5.13,-7.10,-2.64,33.32,-56.64,21.41,44955
-6.86,-7.92,-22.28,5.55,-8.56,-2.22,45.02,-46.99,20.53,44989
-9.10,-11.09,-18.12,5.28,-9.19,-1.76,58.58,-37.56,9.97,45023
-9.39,-4.77,-25.14,4.52,-8.64,-0.82,65.05,-35.34,-4.14,45057
3.36,1.58,-20.30,3.57,-6.34,0.57,66.30,-37.97,-16.47,45091
18.61,0.22,-10.11,1.22,-3.15,-0.09,64.76,-42.58,-25.08,45125
16.11,-6.09,-4.86,0.76,-1.90,-1.77,63.86,-42.08,-28.14,45160
5.55,-6.64,-10.29,1.76,-3.20,-4.52,64.76,-34.81,-33.62,45194
-1.37,-4.05,-13.10,2.31,-2.71,-3.19,65.10,-29.07,-37.87,45228
4.63,-7.53,-6.95,2.32,-2.52,-2.14,64.32,-26.75,-41.74,45262
6.93,-8.20,-2.04,3.26,-3.87,-2.30,61.15,-25.71,-49.52,45296
0.06,-7.87,-8.19,4.27,-5.13,-2.14,56.84,-27.48,-56.40,45331
-0.41,-8.17,-11.33,5.31,-7.41,-2.49,48.23,-31.37,-64.64,45365
0.51,-5.94,-8.35,5.55,-8.32,-2.41,34.01,-38.82,-72.08,45399
-5.16,-10.01,-6.82,5.25,-7.77,-1.26,21.48,-47.50,-71.66,45433
-2.54,-7.23,-7.84,4.93,-8.33,-1.45,5.74,-57.79,-67.26,45467
5.38,-2.55,-12.99,4.50,-7.24,-1.57,-3.98,-65.11,-58.51,45501
3.87,-9.20,-11.64,3.82,-5.94,-1.95,-8.67,-70.45,-49.43,45536
-2.12,-13.01,-12.80,3.65,-5.35,-3.08,-8.49,-75.28,-37.52,45570
-2.49,-7.80,-12.20,3.46,-4.30,-2.61,-6.23,-77.76,-28.56,45604
-4.10,-10.91,-10.47,3.87,-4.55,-2.23,-3.90,-78.95,-15.84,45638
-2.09,-15.64,-14.05,5.25,-6.42,-2.94,0.69,-78.76,-5.20,45672
-5.20,-13.00,-24.36,5.90,-7.60,-3.62,8.51,-74.33,7.15,45707
-6.23,-7.32,-20.85,5.98,-7.44,-2.76,20.77,-64.59,19.45,45741
-5.53,-10.94,-15.45,4.89,-7.53,-0.93,29.29,-57.07,23.33,45775
-7.85,-14.20,-12.47,4.78,-7.97,-0.89,38.97,-50.37,22.54,45809
-7.31,-6.76,-20.01,4.74,-8.69,-0.66,49.74,-43.35,14.02,45843
-8.20,4.63,-25.16,4.58,-9.14,-0.62,56.24,-39.59,3.32,45877
9.62,0.28,-24.84,3.01,-6.94,-1.57,60.68,-36.66,-9.81,45912
4.71,-3.07,-13.51,2.16,-4.07,-1.93,61.55,-35.14,-15.80,45946
0.22,-9.60,-6.77,2.51,-4.17,-1.83,61.97,-34.51,-21.46,45980
-2.84,-11.81,-10.63,3.24,-5.56,-2.31,60.55,-34.38,-31.53,46014
1.39,-11.23,-18.05,3.85,-6.46,-3.06,57.94,-34.36,-40.38,46048
-0.66,-8.55,-18.88,3.89,-5.91,-3.39,54.71,-35.46,-46.10,46083
0.59,-10.92,-21.06,4.21,-5.85,-3.24,49.96,-36.98,-52.54,46117
-3.57,-9.66,-16.22,5.53,-7.11,-2.71,44.23,-39.80,-56.34,46151
-3.52,-5.30,-13.98,5.22,-7.37,-2.38,35.18,-45.60,-60.45,46185
-10.85,-14.25,-11.57,5.61,-9.80,-1.97,23.33,-52.86,-61.94,46219
-20.25,-14.09,-13.31,5.18,-10.04,-0.64,10.58,-60.89,-58.67,46253
-6.01,1.19,-26.50,4.51,-9.08,-1.04,-3.51,-68.84,-49.78,46288
8.69,5.55,-24.55,2.62,-5.01,-1.26,-9.94,-72.73,-41.57,46322
11.28,-9.38,-5.96,2.27,-3.14,-1.63,-12.06,-76.07,-33.63,46356
5.27,-11.88,-7.45,3.13,-4.58,-4.04,-8.73,-78.56,-25.49,46390
-0.38,-7.43,-19.01,3.82,-5.54,-4.54,-1.34,-79.80,-15.17,46424
3.08,-5.91,-21.53,3.44,-4.68,-3.46,7.67,-77.96,-4.68,46458
-3.61,-11.87,-13.77,3.96,-4.24,-1.99,12.80,-74.31,3.11,46493
-9.11,-7.36,-7.75,4.38,-5.97,-2.01,22.03,-68.72,10.95,46527
-2.34,-9.10,-7.94,4.96,-10.98,-3.32,32.59,-60.87,11.62,46561
-8.70,-6.44,-17.06,5.47,-10.04,-2.86,45.41,-52.21,7.72,46595
-0.71,4.34,-19.01,3.20,-7.41,-0.41,52.73,-46.61,-0.75,46629
8.84,-1.90,-15.56,1.34,-5.95,-0.50,54.15,-46.59,-8.36,46664
4.45,-5.07,-14.60,2.00,-4.66,-1.74,55.29,-45.91,-14.32,46698
0.37,-5.09,-8.87,3.34,-5.68,-3.46,57.91,-41.51,-22.11,46732
-4.76,-16.90,-6.92,4.85,-7.49,-4.55,59.16,-36.80,-31.00,46766
-16.06,-19.75,-16.45,5.99,-9.17,-5.75,55.80,-32.39,-45.43,46800
-14.10,-15.33,-28.90,6.41,-9.54,-5.62,49.78,-33.06,-54.63,46834
-0.98,-6.46,-31.93,5.81,-7.91,-5.04,42.43,-36.07,-60.70,46869
-8.43,-6.78,-20.55,6.10,-6.35,-1.35,32.93,-44.58,-62.23,46903
-13.26,-12.20,-16.34,6.13,-7.85,-0.48,22.73,-53.42,-61.33,46937
-14.43,-13.90,-19.30,6.98,-12.45,-2.27,8.71,-65.90,-55.00,46971
-16.81,-9.10,-27.90,6.46,-11.79,-1.32,-7.50,-71.38,-40.91,47005
-7.37,-2.94,-39.16,4.16,-10.20,-1.09,-15.49,-74.17,-25.72,47040
-4.53,0.78,-28.92,2.71,-6.88,-0.77,-20.07,-73.31,-7.70,47074
3.98,1.51,-21.57,2.35,-5.20,0.01,-21.35,-69.34,4.00,47108
12.43,-6.32,-12.74,2.21,-4.37,-1.33,-18.46,-65.40,14.22,47142
4.61,-13.26,-8.82,1.96,-4.71,-2.85,-9.15,-60.48,23.95,47176
-0.52,-10.83,-11.69,1.98,-4.64,-2.91,0.76,-55.51,28.35,47210
0.77,-13.57,-12.91,2.31,-4.45,-2.04,11.85,-47.71,31.54,47245
-4.48,-13.85,-17.03,3.64,-5.16,-3.00,22.04,-39.70,31.92,47279
-2.12,-8.78,-19.88,4.26,-5.33,-3.24,32.33,-30.11,29.61,47313
-6.25,-20.25,-22.22,5.21,-6.51,-2.51,41.93,-19.13,21.21,47347
-12.24,-2.74,-28.85,7.36,-8.92,-3.89,49.80,-8.78,7.94,47381
-1.00,5.14,-34.26,5.79,-10.44,-4.51,54.00,0.39,-15.62,47416
-10.85,-9.64,-19.83,7.21,-10.06,-1.77,53.27,-0.67,-34.79,47450
-14.60,-9.75,-18.17,6.84,-10.28,-1.62,47.38,-7.44,-52.57,47484
-3.02,2.21,-33.13,5.05,-10.03,-1.82,33.66,-17.38,-67.99,47518
-1.80,-1.31,-29.24,5.07,-9.07,-1.20,19.98,-28.49,-74.47,47552
0.85,-2.97,-23.55,4.72,-8.66,-1.84,5.57,-39.23,-74.35,47586
1.87,-2.08,-14.84,3.94,-7.24,-1.81,-9.72,-50.12,-70.04,47621
5.04,-7.89,-12.40,4.50,-7.68,-2.89,-18.53,-59.44,-61.40,47655
0.31,-11.80,-14.37,4.15,-7.05,-3.73,-24.19,-67.95,-46.05,47689
-5.70,-16.42,-18.25,4.23,-6.37,-2.99,-24.60,-73.09,-31.92,47723
-3.81,-21.52,-26.86,4.37,-5.92,-3.28,-22.20,-75.26,-16.22,47757
-3.70,-11.14,-22.74,4.74,-5.57,-3.51,-14.41,-71.97,0.96,47791
-2.84,1.21,-16.98,4.28,-4.54,-1.17,-10.04,-64.89,12.13,47826
-5.70,-16.67,-14.18,4.94,-7.98,-1.53,-0.34,-54.97,25.31,47860
-11.16,2.23,-10.42,5.55,-7.71,-0.53,12.74,-44.02,30.88,47894
-3.35,-10.61,-22.17,5.21,-8.72,1.56,22.35,-35.88,30.21,47928
2.61,-3.14,-21.01,4.79,-7.57,0.55,34.26,-27.74,25.15,47962
9.28,-0.66,-12.95,2.67,-4.62,1.02,39.75,-24.71,19.64,47997
10.33,-9.78,-19.12,1.68,-3.24,-1.41,42.88,-24.17,14.59,48031
3.89,-0.40,-4.34,2.09,-1.78,-0.71,44.90,-22.42,13.83,48065
4.07,-14.71,-1.88,2.39,-3.65,-0.09,48.44,-21.78,9.82,48099
1.19,-8.20,-5.04,2.82,-3.74,-0.63,51.91,-20.49,3.54,48133
-5.03,-15.53,-10.37,2.50,-4.78,0.45,54.36,-22.32,-2.72,48167
-0.85,-8.36,-8.51,3.44,-5.33,-0.08,56.55,-24.54,-10.27,48202
0.39,-11.05,-9.78,3.03,-5.14,0.28,58.55,-29.20,-16.78,48236
10.91,-8.94,-0.89,2.71,-3.43,0.09,58.52,-33.70,-19.99,48270
0.05,-11.50,-7.87,2.41,-3.72,-0.01,58.43,-38.41,-22.74,48304
4.44,-8.40,-5.58,2.44,-2.97,0.05,57.50,-43.19,-24.93,48338
5.78,-8.96,-4.32,2.22,-2.43,0.01,57.10,-46.93,-24.51,48373
3.84,-9.79,-3.19,2.21,-2.31,0.11,56.96,-50.54,-23.36,48407
7.21,-10.19,-1.10,2.08,-2.20,0.17,56.45,-53.80,-21.44,48441
2.56,-8.99,-0.57,2.19,-2.03,0.42,55.66,-56.12,-20.78,48475
8.46,-7.56,1.68,2.23,-2.14,0.35,55.64,-59.24,-19.20,48509
7.41,-8.29,2.20,2.28,-2.39,0.56,54.76,-61.20,-17.49,48543
4.79,-11.68,2.19,2.18,-2.64,0.94,53.22,-64.54,-16.88,48578
3.90,-11.05,-0.84,1.86,-2.76,0.92,51.72,-67.29,-16.88,48612
8.62,-7.47,1.26,1.63,-2.08,0.57,50.92,-69.39,-16.84,48646
9.72,-7.66,2.69,0.78,-1.39,0.47,49.55,-71.00,-15.86,48680
9.07,-7.77,-0.69,0.32,-1.07,0.30,48.92,-72.64,-16.53,48714
11.82,-4.81,3.16,0.42,-0.62,-0.02,48.82,-73.47,-16.62,48749
12.31,-3.53,2.16,0.18,-0.45,-0.24,49.05,-74.19,-17.20,48783
12.76,-3.83,1.30,-0.07,-0.32,-0.60,49.62,-73.49,-17.57,48817
6.00,-7.53,4.26,0.27,-0.34,-0.48,50.82,-72.77,-17.54,48851
6.04,-7.54,6.10,-0.16,-0.28,-0.22,51.26,-72.60,-18.52,48885
4.04,-8.72,4.96,-0.82,-0.15,-0.01,51.56,-72.70,-20.45,48919
3.27,-9.50,6.19,-1.14,0.05,0.14,50.99,-72.22,-21.79,48954
5.62,-8.70,4.29,-1.18,-0.07,0.11,49.94,-71.81,-23.69,48988
4.81,-9.32,3.18,-1.36,-0.04,0.26,48.10,-72.08,-27.10,49022
3.57,-14.33,2.64,-1.30,-0.09,0.13,47.37,-71.46,-29.04,49056
1.59,-16.32,1.42,-0.87,0.11,0.22,45.83,-70.61,-30.66,49090
-1.27,-16.22,-5.23,0.05,0.01,0.58,42.71,-70.14,-31.25,49125
9.46,-12.80,-1.83,0.26,0.11,0.02,39.58,-69.70,-31.86,49159
9.00,-5.59,-3.07,-0.13,1.22,0.20,36.19,-68.23,-31.42,49193
-16.92,-11.19,-14.09,-3.47,-2.91,0.11,35.75,-65.87,-39.42,49227
6.78,-2.69,2.76,1.18,-0.41,-1.34,37.24,-63.80,-42.63,49261
-1.88,-5.18,-5.24,-1.03,1.85,0.67,35.28,-62.66,-47.28,49295
-2.07,-6.65,-1.58,-0.94,1.02,0.83,34.36,-62.76,-50.79,49330
-0.13,-9.02,2.37,-1.41,-0.45,1.15,31.99,-62.76,-57.16,49364
-3.10,-6.33,0.46,-1.56,-0.08,2.45,26.53,-63.04,-63.75,49398
16.14,-17.46,21.75,2.00,-2.17,-1.02,18.69,-61.68,-69.22,49432
9.50,0.33,4.36,0.75,-3.90,-1.79,13.31,-61.96,-69.39,49466
13.13,-6.99,10.63,0.08,0.11,0.36,9.84,-62.64,-70.24,49500
11.79,-9.09,-0.23,-0.80,-0.44,-0.26,7.98,-61.75,-71.05,49535
1.69,-12.49,2.75,-1.15,0.49,0.51,7.07,-60.25,-71.40,49569
-0.34,-9.33,-3.63,-0.69,0.28,0.54,5.57,-59.37,-71.48,49603
-1.05,-9.31,-3.42,-0.07,-0.03,0.98,3.00,-59.66,-69.66,49637
3.46,-9.00,-1.84,0.39,-0.12,0.76,0.01,-60.10,-67.57,49671
5.21,-8.58,-1.52,0.16,0.40,0.43,-1.81,-60.11,-67.22,49706
4.07,-8.16,-2.42,0.08,0.63,0.06,-1.96,-60.11,-65.62,49740
3.13,-9.54,-2.10,0.04,1.00,-0.02,-2.10,-59.73,-64.63,49774
2.39,-9.95,-1.18,0.15,0.92,-0.03,-1.59,-59.78,-62.67,49808
3.87,-9.99,-0.32,0.42,0.54,0.09,-1.71,-60.25,-63.07,49842
7.70,-9.64,1.15,0.27,0.47,-0.02,-2.41,-60.25,-61.22,49876
6.77,-9.03,0.75,-0.05,0.68,-0.29,-2.88,-59.81,-60.06,49911
4.22,-8.48,-1.98,-0.20,0.76,-0.43,-1.87,-59.34,-60.04,49945
4.16,-8.32,-1.37,-0.08,0.71,-0.45,-0.89,-58.96,-59.91,49979
4.70,-8.85,-0.86,-0.11,0.70,-0.52,0.45,-58.45,-59.63,50013
4.41,-8.10,-1.22,-0.08,0.69,-0.61,1.27,-58.02,-59.51,50047
4.31,-8.71,-0.89,-0.14,0.80,-0.57,2.76,-57.88,-58.94,50082
3.01,-8.07,-1.63,-0.23,0.77,-0.54,4.28,-57.54,-59.72,50116
3.57,-8.33,-0.16,-0.16,0.81,-0.41,5.28,-57.16,-59.19,50150
3.68,-7.91,-0.46,-0.27,0.70,-0.49,7.03,-56.78,-60.07,50184
4.29,-8.82,-0.85,-0.75,0.43,-0.60,7.73,-56.15,-60.23,50218
4.55,-14.70,-0.29,-0.16,0.28,-0.22,8.40,-55.44,-60.08,50252
0.19,-16.93,-3.94,1.10,0.33,0.01,8.70,-56.11,-59.22,50287
-5.04,-17.44,-6.31,-0.14,0.96,0.97,7.91,-56.31,-58.01,50321
-1.57,-12.60,-13.70,-0.22,0.52,2.01,5.28,-51.65,-59.97,50355
5.05,-7.19,-2.90,1.20,2.16,-0.82,7.06,-50.53,-57.69,50389
10.94,-0.84,-28.63,-3.74,1.99,-2.98,12.63,-46.90,-57.56,50423
-0.94,-5.44,1.80,3.40,0.66,-2.79,16.75,-45.85,-54.11,50458
-0.23,-6.41,-7.75,-0.20,-2.99,-4.45,17.58,-42.08,-55.00,50492
3.53,-5.64,-6.08,0.36,-2.93,-3.82,16.30,-39.48,-55.69,50526
4.41,-6.60,-3.73,0.12,-2.34,-2.59,14.37,-38.28,-55.26,50560
4.79,-6.39,-1.99,-0.08,-1.13,-0.84,12.45,-38.15,-54.65,50594
3.74,-7.72,0.60,0.69,-0.27,0.37,10.86,-38.91,-52.63,50628
4.47,-8.88,2.44,0.91,-0.79,0.36,9.15,-40.19,-49.55,50663
4.17,-9.23,2.33,0.65,-2.02,0.44,6.23,-41.73,-47.00,50697
8.01,-7.33,0.46,0.88,-3.04,0.21,1.97,-44.08,-44.56,50731
8.69,-5.61,-1.76,1.54,-2.99,0.42,-1.30,-46.39,-41.48,50765
6.45,-4.72,-2.32,2.16,-2.66,0.74,-5.44,-49.25,-35.19,50799
6.75,-3.45,-2.72,2.03,-2.85,0.94,-8.07,-51.21,-29.68,50833
6.88,-2.29,-3.86,1.66,-2.88,1.22,-10.33,-52.92,-24.79,50868
9.41,-0.87,-4.70,0.73,-2.34,1.74,-13.84,-53.76,-19.16,50902
11.36,-1.22,-5.90,-0.22,-1.21,2.40,-17.61,-53.81,-17.00,50936
10.63,1.81,-4.58,2.07,3.09,3.70,-22.35,-53.16,-17.23,50970
9.77,-2.78,-8.10,-0.85,3.42,3.31,-27.01,-51.27,-20.65,51004
13.56,-2.92,20.29,7.03,3.60,2.66,-32.72,-48.11,-21.92,51039
2.51,-10.18,-4.10,1.37,3.17,-1.22,-30.06,-49.65,-22.90,51073
0.20,-9.42,-10.16,1.19,0.33,-1.58,-29.93,-49.34,-22.62,51107
6.88,-7.81,-8.81,-0.22,0.13,-1.02,-28.79,-50.18,-21.70,51141
-2.16,-12.59,-7.32,-1.14,1.88,0.65,-29.93,-49.96,-24.96,51175
-2.06,-14.73,-3.05,-1.53,2.30,0.59,-30.85,-48.42,-27.92,51209
-1.17,-10.70,-7.34,-0.21,3.94,1.63,-31.75,-45.60,-32.34,51244
-2.18,-12.26,-4.74,-1.06,5.43,3.14,-32.77,-40.92,-37.56,51278
-2.17,-11.71,-3.96,0.59,6.03,2.99,-31.92,-35.62,-44.27,51312
4.28,-5.16,-13.95,-0.96,3.23,0.05,-28.82,-33.22,-47.82,51346
-1.84,-7.45,-2.85,0.73,-1.53,-2.62,-27.71,-33.32,-47.05,51380
0.17,-5.76,-4.61,0.64,-3.99,-2.94,-28.25,-35.84,-40.84,51415
1.84,-5.27,-5.71,0.78,-4.72,-2.67,-28.94,-37.20,-35.53,51449
3.11,-5.85,-5.43,1.03,-4.42,-1.96,-28.75,-39.27,-30.06,51483
9.79,-8.28,-6.50,-0.28,-2.83,-0.73,-28.24,-39.46,-24.52,51517
1.53,-6.32,-5.43,0.45,-1.80,0.76,-28.38,-38.85,-21.94,51551
3.15,-7.45,-3.37,0.20,-1.69,1.06,-28.69,-38.29,-18.87,51585
1.64,-8.88,-4.16,-0.36,-2.17,1.35,-29.04,-36.45,-16.88,51620
1.97,-10.12,-6.19,-0.93,-2.28,1.51,-29.85,-35.22,-14.98,51654
2.36,-9.95,-6.45,-1.30,-2.02,1.72,-30.88,-33.56,-13.50,51688
3.25,-9.37,-6.10,-1.31,-1.50,2.04,-31.63,-31.83,-12.69,51722
3.81,-9.17,-6.57,-1.42,-0.76,2.33,-33.15,-29.23,-10.95,51756
2.84,-10.06,-6.38,-1.42,-0.30,2.49,-34.73,-27.83,-10.87,51791
1.06,-10.74,-4.20,-1.19,-0.09,2.25,-35.59,-25.69,-11.11,51825
0.20,-10.87,-3.08,-0.90,-0.06,1.83,-36.88,-22.71,-10.30,51859
0.13,-11.06,-2.55,-0.61,-0.35,0.83,-37.24,-21.91,-9.92,51893
2.38,-8.92,-4.50,-0.29,-0.58,-0.41,-36.26,-22.10,-7.91,51927
1.97,-8.19,-4.62,0.19,-0.68,-1.21,-34.87,-22.77,-7.10,51961
0.61,-8.05,-3.58,0.39,-0.69,-1.94,-33.22,-24.88,-5.42,51996
-0.29,-6.48,-4.71,0.28,-1.12,-2.50,-30.77,-27.92,-4.47,52030
-0.44,-5.93,-4.93,0.10,-1.60,-2.62,-27.23,-30.61,-2.22,52064
0.15,-5.83,-5.55,-0.12,-1.63,-2.21,-24.20,-33.21,-1.01,52098
1.47,-6.15,-6.51,-0.31,-0.93,-1.57,-20.81,-35.17,-0.60,52132
3.36,-6.53,-7.96,-0.44,-0.06,-0.99,-19.13,-36.95,-1.24,52166
-6.18,-0.75,-1.79,10.44,4.55,4.79,-21.69,-36.22,-3.26,52201
-12.94,-20.01,-6.67,-1.83,3.28,1.41,-23.53,-36.09,-7.22,52235
-2.98,-13.57,3.63,0.79,1.47,0.55,-24.63,-35.90,-8.27,52269
-0.81,-9.53,-1.09,0.37,0.58,0.98,-25.12,-34.08,-9.18,52303
1.15,-6.98,-2.78,0.54,-0.02,0.93,-25.15,-32.30,-8.74,52337
4.51,-5.82,-6.19,0.40,0.04,1.03,-25.23,-30.66,-8.89,52372
2.18,-12.02,-7.37,-0.21,1.22,1.87,-25.52,-28.52,-11.08,52406
1.69,-9.03,-4.43,0.42,1.78,1.36,-26.16,-27.07,-12.93,52440
1.91,-9.36,-6.28,-0.31,3.13,2.23,-27.02,-24.17,-16.44,52474
3.22,-7.36,-5.03,-0.20,3.52,2.09,-27.19,-22.29,-20.64,52508
5.20,-2.33,-8.86,-0.30,4.73,3.18,-27.40,-19.10,-26.09,52542
-2.34,-6.72,-8.97,-1.57,6.22,4.70,-26.16,-14.40,-32.64,52577
0.53,-8.43,-5.11,-1.15,5.62,4.37,-23.56,-10.22,-37.28,52611
2.22,-7.28,-3.56,-0.69,4.43,3.49,-18.87,-6.91,-41.30,52645
-0.11,-7.84,-4.51,-0.22,2.86,2.27,-15.57,-4.90,-43.20,52679
2.79,-5.02,-4.11,0.27,1.86,1.69,-13.20,-4.76,-43.58,52713
-0.13,-29.55,-18.27,1.89,-0.28,4.24,-11.20,-4.68,-44.23,52748
2.25,-7.16,-17.10,1.31,2.45,-2.63,-9.62,-6.80,-45.29,52782
0.91,-7.38,-5.82,-0.55,1.01,-0.20,-7.41,-7.53,-45.98,52816
-0.86,-9.05,-7.14,0.71,1.96,1.26,-6.59,-8.23,-46.33,52850
3.36,-9.23,-1.15,0.39,0.69,1.64,-5.00,-8.59,-46.38,52884
1.94,-6.43,-5.92,1.70,2.24,0.68,-2.70,-10.42,-48.20,52918
1.04,-5.35,-6.97,0.16,2.44,1.01,-1.02,-11.06,-47.85,52953
0.02,-7.40,-7.43,0.15,2.34,1.24,1.59,-12.12,-48.86,52987
