ax,ay,az,gx,gy,gz,mx,my,mz,timestamp
-2.90,8.97,-1.93,0.02,0.10,-0.17,31.95,-0.96,-46.99,9007
-2.59,9.72,-2.01,0.06,-0.07,-0.25,31.79,-0.22,-46.93,9041
-1.80,9.81,-1.90,-0.33,-0.34,-0.01,31.85,-0.99,-47.91,9076
-2.46,8.61,-0.64,-0.89,-0.74,0.30,32.30,-1.46,-48.04,9110
-2.19,9.02,-0.66,-0.14,-0.49,0.04,32.17,-1.87,-48.11,9144
-3.57,9.35,-2.17,-0.23,-0.39,-0.24,31.76,-1.51,-48.73,9178
-3.07,9.09,-1.90,-0.26,-0.38,-0.37,31.06,-1.17,-48.77,9212
-2.96,8.51,-2.20,-0.28,-0.28,-0.61,31.06,-0.41,-49.90,9247
-4.79,8.10,-2.47,-0.30,-0.05,-0.89,30.17,0.69,-49.75,9281
-6.33,7.37,-2.09,-0.19,-0.09,-1.39,29.28,2.06,-48.83,9315
-6.54,6.79,-1.92,0.09,0.12,-1.64,28.15,2.94,-50.01,9349
-8.80,7.09,-0.57,0.23,-0.35,-1.53,27.19,4.36,-50.00,9383
-8.46,10.28,-1.26,0.14,-1.18,-1.09,25.97,5.32,-50.37,9417
-6.44,13.85,-4.37,0.37,-2.31,-0.37,23.50,5.73,-52.69,9452
-4.81,19.22,-2.24,-0.24,-1.57,-0.27,21.22,5.82,-53.96,9486
8.22,17.97,-5.14,-0.75,-1.21,0.30,19.75,6.07,-54.34,9520
-3.49,14.61,0.49,-1.07,-1.65,-0.24,18.44,7.23,-53.79,9554
-8.30,3.43,-16.03,-1.18,-0.17,-2.01,16.52,9.19,-53.80,9588
-2.95,11.27,-4.98,-0.47,1.77,-3.65,14.29,10.76,-51.94,9623
1.45,8.41,-1.25,-0.73,1.49,-2.92,13.56,12.88,-51.40,9657
-3.72,5.62,-4.10,-0.06,1.53,-2.06,12.41,13.81,-49.42,9691
-8.16,4.22,-4.17,0.47,0.49,-0.98,12.07,13.83,-49.66,9725
-4.79,5.50,-0.75,0.78,-1.37,0.51,11.56,12.55,-50.35,9759
-0.47,5.94,2.45,0.67,-1.11,1.06,11.60,11.94,-52.00,9793
-4.26,6.48,0.67,0.68,0.81,0.90,12.48,10.99,-51.87,9828
-5.14,7.77,0.06,0.21,2.07,0.86,14.50,10.26,-50.56,9862
-5.68,7.75,-1.15,-0.20,2.83,0.84,17.22,9.88,-49.27,9896
-7.72,6.00,-2.86,-0.46,2.97,0.93,19.63,9.50,-47.16,9930
-7.52,5.57,-3.23,-0.26,2.44,1.35,21.67,9.60,-44.93,9964
-7.68,6.26,-3.68,-0.08,2.42,1.48,25.12,9.50,-42.81,9999
-5.92,6.76,-3.62,0.21,2.44,1.45,27.49,8.56,-40.65,10033
-4.83,6.20,-3.80,0.66,2.17,1.51,30.84,6.88,-38.26,10067
-7.45,6.65,-3.91,1.17,2.04,1.49,33.59,5.66,-37.64,10101
-6.31,7.81,-3.18,1.53,1.13,1.76,35.43,3.60,-36.99,10135
-4.84,10.34,-1.60,1.45,0.50,1.87,37.59,0.26,-37.08,10169
-3.34,11.49,-0.54,0.78,1.00,1.29,39.65,-2.09,-36.44,10204
-4.78,10.80,-0.75,0.05,1.61,0.34,41.22,-3.04,-33.67,10238
-5.50,8.56,-1.33,-0.22,1.50,-0.38,42.39,-3.20,-31.85,10272
3.03,38.92,-9.71,0.66,0.36,-0.53,42.75,-2.32,-30.46,10306
-5.75,6.47,-6.34,0.81,0.10,-2.39,41.44,1.52,-29.41,10340
3.34,14.55,-0.98,0.87,-1.09,-0.60,41.38,1.39,-30.75,10375
-5.49,8.31,-5.54,0.45,-0.75,-0.44,40.79,1.15,-31.72,10409
-6.31,8.03,-6.31,0.31,-0.97,0.00,40.68,1.32,-32.89,10443
-4.52,8.41,-1.84,-0.01,-1.00,0.29,40.56,0.29,-34.70,10477
-4.76,9.45,-2.10,-0.27,-0.81,0.38,40.56,-0.91,-35.12,10511
-1.96,9.42,-3.82,-0.41,-1.10,0.76,40.30,-1.59,-36.01,10545
-1.96,8.61,-2.98,-0.45,-1.19,1.05,40.22,-3.26,-38.06,10580
-2.79,8.17,-5.01,-0.38,-1.19,0.85,39.71,-4.08,-39.11,10614
-0.31,7.63,-4.67,-0.33,-1.05,0.57,39.21,-5.06,-40.38,10648
-2.53,7.26,-5.62,-0.27,-0.93,0.10,38.21,-5.09,-41.80,10682
-1.05,9.04,-1.92,-0.20,-1.26,-0.17,37.71,-5.06,-42.97,10716
-3.10,9.56,-2.93,-0.26,-0.94,-0.37,36.06,-4.69,-44.15,10750
-3.77,8.65,-0.74,-0.25,-1.08,-0.27,35.37,-3.89,-45.73,10785
-4.16,8.69,-2.07,-0.37,-1.15,-0.16,34.33,-4.06,-45.95,10819
-2.82,8.66,-1.75,-0.49,-1.19,-0.12,33.38,-3.80,-47.41,10853
-2.20,9.11,-2.76,-0.53,-1.19,-0.33,31.82,-2.67,-48.68,10887
-0.94,9.70,-4.04,-0.59,-1.61,-0.17,30.69,-1.78,-49.39,10921
2.65,13.27,-1.36,-0.27,-2.81,-0.06,27.51,-1.32,-51.87,10956
-1.20,17.54,-11.67,-0.53,-3.19,-0.52,24.33,0.50,-53.64,10990
-1.16,13.94,-13.35,-0.79,-2.98,-0.40,21.70,2.09,-54.98,11024
-19.75,-0.00,-4.33,-1.52,-2.53,-0.61,17.20,4.50,-56.52,11058
-5.95,7.19,-2.70,-0.34,0.71,-2.28,15.70,6.12,-56.18,11092
0.28,3.72,0.20,-1.09,2.76,-2.53,16.05,8.90,-53.95,11126
-6.18,0.24,-2.44,-0.31,4.02,-1.68,17.90,11.66,-51.46,11161
-10.76,2.40,-2.94,0.45,3.09,-0.63,20.15,12.06,-49.72,11195
-4.31,4.73,-1.47,1.25,0.52,1.18,22.79,10.26,-49.97,11229
-3.22,7.81,1.58,1.63,0.07,1.58,24.39,8.29,-51.40,11263
-3.66,10.41,2.06,1.56,0.93,1.33,26.88,5.57,-52.05,11297
-5.02,10.20,0.04,1.18,2.23,0.80,30.09,3.52,-50.82,11332
-5.80,8.95,-1.56,1.00,1.65,0.78,32.32,1.96,-49.30,11366
-5.25,9.57,-1.37,1.00,1.12,0.84,34.96,-0.44,-48.04,11400
-4.02,10.36,-0.29,0.89,0.63,0.95,35.85,-2.43,-48.01,11434
-3.52,10.23,-0.28,0.65,0.69,0.82,37.50,-5.25,-47.14,11468
-3.81,10.83,-1.03,0.29,0.70,0.76,38.47,-6.72,-46.30,11502
-3.77,10.46,-1.54,-0.02,0.38,0.61,39.97,-8.13,-46.07,11537
-4.08,10.58,-1.82,-0.07,-0.01,0.48,40.03,-9.50,-44.48,11571
-3.08,10.47,-1.67,-0.30,-0.29,0.22,40.06,-9.91,-44.43,11605
-2.70,9.20,-0.62,-0.76,-0.27,-0.13,40.22,-10.27,-45.12,11639
-22.51,18.69,-15.34,-0.24,0.48,-0.98,39.93,-9.69,-45.03,11673
0.10,3.56,-2.64,-0.51,-0.24,-1.35,38.97,-8.13,-45.31,11708
-1.42,5.62,-1.76,0.01,-0.53,-0.57,38.23,-7.70,-45.45,11742
-1.34,13.00,-2.91,0.08,-0.29,-0.05,37.88,-8.08,-45.43,11776
-4.89,8.81,-0.89,-0.35,-0.02,-0.74,37.83,-7.61,-45.29,11810
-2.56,8.55,-4.83,-0.68,0.17,-0.96,37.50,-5.96,-44.20,11844
-1.22,7.88,-3.83,-0.84,0.29,-1.09,36.85,-4.47,-43.92,11878
-1.55,9.32,-3.99,-1.30,1.05,-1.24,36.82,-2.81,-41.55,11913
-3.96,6.94,-9.20,-1.44,1.24,-1.19,36.19,-0.50,-39.42,11947
-4.06,6.67,-4.77,-0.37,0.61,-0.81,36.16,0.47,-38.26,11981
-0.95,18.71,-2.23,-0.54,0.27,-0.15,36.32,0.69,-36.77,12015
6.33,24.90,-2.14,-2.45,1.71,-0.37,35.93,1.32,-34.10,12049
19.97,19.06,-3.25,-4.97,4.62,-1.22,35.19,2.56,-28.31,12083
12.69,-0.46,-26.97,-5.55,8.36,-4.61,30.71,7.00,-16.43,12118
5.27,-13.84,-17.10,-3.76,6.07,-1.24,24.88,8.20,-7.69,12152
16.62,7.21,-15.39,-1.50,3.57,2.89,23.56,5.48,-3.01,12186
-5.31,1.92,-7.13,-1.07,4.38,1.74,21.06,4.41,1.61,12220
-10.88,6.44,-5.31,-0.81,4.58,-0.10,17.58,4.00,4.59,12254
-1.36,12.33,-35.48,1.62,1.68,-0.84,11.27,5.58,5.86,12289
-1.86,4.56,-5.14,0.58,2.76,-0.65,9.34,6.68,5.80,12323
-2.53,18.89,9.59,-0.29,3.43,0.46,6.45,7.63,6.84,12357
-15.42,2.33,-12.37,-2.19,7.23,-1.34,-2.37,6.83,7.72,12391
0.22,-0.94,-30.70,-2.95,10.90,-4.77,-12.99,3.83,6.33,12425
10.89,-2.12,-1.91,-2.75,8.11,-7.48,-27.21,-5.04,-0.88,12459
-0.98,-7.28,13.72,-3.50,6.98,-3.80,-34.19,-13.40,-9.87,12494
5.32,37.92,-11.86,-2.01,6.21,-2.00,-37.12,-17.44,-18.12,12528
17.38,9.03,0.27,1.13,-1.14,-1.13,-37.78,-19.50,-19.31,12562
-2.04,18.81,-11.82,-0.07,1.87,-0.50,-39.10,-20.42,-21.27,12596
-13.74,12.88,4.87,0.04,0.93,0.34,-39.27,-20.08,-22.81,12630
-5.76,2.79,-1.25,-0.09,-0.31,0.53,-39.58,-19.73,-23.17,12665
-3.83,9.34,-6.07,0.28,-0.73,1.59,-40.09,-17.85,-23.12,12699
1.36,12.91,-7.21,0.03,-1.33,2.10,-40.84,-14.76,-20.42,12733
2.89,5.07,-23.98,-0.17,-1.28,2.29,-40.44,-12.44,-18.61,12767
2.73,4.13,-28.16,0.97,-2.54,2.54,-39.61,-8.35,-14.00,12801
-17.15,-1.69,-14.75,4.05,-6.36,1.16,-37.14,-5.45,-8.04,12835
-1.55,-3.53,3.86,4.64,-6.21,0.86,-32.18,-1.74,-1.56,12870
5.36,10.31,8.69,2.89,-1.31,-0.07,-30.50,1.61,-0.16,12904
7.08,13.64,7.63,-0.41,3.26,-2.76,-33.21,-0.09,-2.78,12938
0.11,20.71,5.50,-1.53,4.99,-3.06,-38.15,-4.57,-8.20,12972
-15.45,11.26,-7.88,0.52,2.01,-3.31,-40.76,-8.96,-13.80,13006
-5.93,16.05,-2.23,-0.22,3.21,-2.13,-41.82,-12.70,-17.49,13041
-16.30,14.64,6.65,-1.76,6.61,-4.00,-41.63,-19.39,-27.62,13075
-4.16,15.31,-4.49,-3.39,8.68,-6.12,-38.91,-26.63,-38.91,13109
-6.79,9.42,-6.59,-2.28,5.20,-4.94,-31.57,-31.76,-48.83,13143
-7.57,13.33,0.44,-2.20,5.61,-5.84,-21.56,-36.16,-55.76,13177
-12.89,7.99,-0.14,-1.73,3.69,-4.49,-13.14,-36.93,-58.84,13211
-4.97,12.63,4.81,-1.22,1.52,-3.15,-8.62,-36.89,-59.65,13246
-1.73,9.65,-7.24,-1.18,1.33,-2.48,-4.40,-36.12,-60.36,13280
0.37,13.21,-0.90,-0.65,-0.35,-1.12,-3.54,-35.47,-60.76,13314
0.90,11.15,-4.19,-1.20,0.42,-1.10,-2.18,-34.14,-61.20,13348
1.59,12.42,-4.65,-1.71,1.59,-0.64,-0.53,-32.52,-61.84,13382
18.39,23.89,-7.16,-3.04,3.58,-0.86,3.67,-29.99,-63.46,13416
35.99,15.01,-14.36,-6.99,13.35,-5.60,19.12,-19.92,-60.07,13451
15.18,-3.27,-32.67,-5.64,14.69,-7.31,35.60,-8.32,-42.63,13485
-0.70,-21.56,-18.94,-3.05,5.14,-1.66,38.67,-2.41,-31.23,13519
-0.02,5.02,-25.17,0.08,2.41,0.69,38.44,-3.07,-27.46,13553
-24.29,35.94,-5.92,1.97,4.33,-5.06,36.45,0.25,-23.25,13587
-28.51,-6.45,-14.65,-0.01,0.54,-1.85,34.80,2.69,-25.20,13622
-5.38,10.97,-0.75,-0.69,0.06,-3.51,32.81,5.31,-25.53,13656
-6.59,17.03,-12.17,1.35,-0.58,-0.19,31.37,6.78,-26.79,13690
-1.94,21.80,3.28,0.30,-0.60,-0.77,29.96,7.69,-28.25,13724
0.96,6.87,-0.93,-0.46,0.75,-0.09,29.17,8.59,-27.30,13758
-7.23,10.54,-1.70,-0.74,1.05,0.26,28.78,8.36,-25.36,13792
-1.90,4.39,-3.00,-1.22,1.52,-0.26,28.28,8.84,-23.94,13827
-5.82,5.96,-6.81,-0.70,1.07,0.80,28.14,9.21,-21.92,13861
-10.28,4.60,-5.25,-0.34,0.44,0.99,28.84,8.65,-21.13,13895
-10.05,3.04,-5.15,0.10,-0.19,0.67,30.18,8.17,-21.28,13929
-5.14,6.13,-5.48,0.85,-0.75,0.47,30.15,8.17,-21.70,13963
-4.57,6.37,-5.43,0.91,-0.88,0.69,30.66,7.63,-23.17,13998
1.03,11.02,-5.81,1.53,-2.32,1.82,31.75,6.56,-26.35,14032
-6.32,8.36,-4.63,0.56,-1.19,0.55,32.70,5.22,-28.57,14066
-2.32,9.14,-6.10,0.49,-1.03,0.05,32.58,5.42,-29.09,14100
0.09,10.53,-6.07,-0.05,-0.32,-0.30,32.43,5.47,-29.10,14134
-2.31,6.49,-2.86,-0.61,0.93,-1.10,32.37,6.62,-28.72,14168
2.25,9.23,-7.44,-0.61,0.98,-0.71,31.99,7.25,-26.54,14203
-0.64,8.38,-5.07,-0.32,1.24,-0.48,31.37,8.08,-25.30,14237
-1.08,6.03,-6.28,-0.30,1.47,-0.63,30.87,8.36,-22.46,14271
-1.52,3.60,-7.70,0.53,-0.06,-0.19,30.34,9.24,-22.30,14305
-2.60,9.77,-3.00,1.09,-1.05,0.06,30.72,8.92,-24.71,14339
-0.88,8.31,-2.20,0.50,-0.45,-0.34,30.52,9.47,-25.33,14374
-4.18,7.76,-5.02,0.58,-0.38,0.25,29.87,8.58,-26.47,14408
-5.43,4.86,-7.24,1.02,-0.69,0.86,30.74,8.20,-27.55,14442
-6.57,11.79,-5.90,1.25,-1.46,1.58,30.53,6.91,-29.35,14476
-3.68,21.72,0.17,0.13,0.23,1.06,31.70,5.63,-29.89,14510
8.56,22.23,1.53,-2.43,2.25,-0.70,31.83,5.71,-27.19,14544
10.50,12.25,-15.21,-4.67,6.07,-3.78,29.38,8.93,-17.19,14579
5.85,-16.45,-21.97,-7.59,13.06,-7.73,18.31,12.06,-3.07,14613
10.98,-4.05,-25.50,-6.83,13.67,-6.26,2.02,8.24,5.66,14647
-6.82,0.80,-11.91,-4.47,11.64,-5.18,-15.84,1.36,4.02,14681
-4.84,-1.71,-4.36,-1.97,5.79,-3.28,-24.25,-3.48,-0.83,14715
-3.19,-2.47,-5.68,-0.96,3.97,-1.81,-28.68,-6.61,-5.60,14750
6.66,17.83,-22.26,0.73,1.56,-0.18,-29.90,-6.69,-7.76,14784
-5.49,5.35,-6.82,2.91,-2.00,-1.22,-30.56,-7.09,-7.28,14818
4.09,8.54,-9.62,2.36,-1.13,-0.16,-29.16,-5.89,-6.52,14852
-13.42,7.80,-3.78,1.80,-0.95,0.75,-29.00,-4.25,-6.90,14886
-9.57,11.78,-2.16,1.61,-0.76,0.82,-27.99,-2.31,-6.85,14920
-5.10,14.81,1.22,0.84,1.05,0.06,-28.02,-1.13,-8.37,14955
0.35,20.77,4.64,-1.57,5.06,-2.79,-30.40,-2.98,-11.90,14989
-2.95,20.14,6.11,-4.28,8.68,-6.85,-35.05,-12.22,-22.64,15023
-0.58,-6.02,-2.36,-5.36,8.80,-9.31,-35.06,-22.79,-33.85,15057
4.95,-9.53,3.06,-4.10,4.85,-4.08,-30.27,-27.11,-42.33,15091
-12.57,23.24,-12.23,-2.17,2.97,-1.48,-26.97,-27.89,-46.86,15125
-9.53,3.13,3.20,1.41,-3.60,-1.50,-27.29,-29.70,-45.75,15160
0.22,18.59,-13.93,1.45,-1.73,0.31,-29.10,-31.61,-42.25,15194
-5.89,13.41,-7.78,0.67,-1.44,-0.01,-30.33,-32.29,-40.66,15228
0.84,11.18,-6.01,0.24,-1.19,-0.13,-31.48,-31.98,-39.24,15262
0.80,8.55,-3.42,0.27,-0.88,0.84,-32.48,-31.50,-37.68,15296
-5.78,3.67,-0.11,0.40,-1.03,1.07,-34.14,-30.56,-36.60,15331
-7.71,2.04,0.34,-0.02,-0.61,0.45,-34.70,-29.19,-35.81,15365
-9.94,-3.62,-0.36,-0.37,-0.17,0.16,-35.37,-29.07,-35.27,15399
-22.45,1.29,-17.11,-0.18,0.37,-0.59,-35.40,-29.49,-36.23,15433
-15.95,8.96,-13.05,-0.18,0.01,-1.61,-35.25,-31.85,-36.77,15467
-32.68,18.71,-19.94,-0.46,0.09,-3.97,-33.41,-36.47,-36.57,15501
-8.89,-8.55,-24.89,-3.12,-1.51,-5.83,-29.76,-42.21,-34.23,15536
16.90,16.24,14.40,-4.56,3.24,-5.73,-20.05,-49.25,-40.47,15570
23.65,3.59,0.31,-5.15,8.01,-3.23,-12.60,-48.67,-49.01,15604
12.88,3.27,8.03,-5.03,7.79,1.33,-4.25,-44.26,-57.45,15638
-7.20,8.35,1.56,-4.26,5.94,4.07,-0.69,-39.64,-61.17,15672
-39.20,-7.37,-37.95,-3.14,4.36,3.68,1.45,-35.55,-65.23,15707
-31.01,29.74,-39.16,2.91,1.57,-1.05,4.31,-37.21,-64.34,15741
6.45,19.67,14.31,2.18,-6.68,1.62,-0.07,-38.97,-63.59,15775
-20.75,13.03,4.82,-0.24,-0.34,-0.86,0.98,-39.75,-63.11,15809
-5.87,0.83,-3.84,-0.49,-0.95,-0.87,1.34,-38.38,-63.31,15843
-2.83,13.42,-4.59,-0.12,-0.93,1.21,-1.10,-37.90,-63.33,15877
-5.72,8.61,-5.13,-0.57,-1.02,0.24,-2.60,-36.80,-63.91,15912
0.39,8.32,-6.40,-0.36,-1.37,0.22,-4.90,-36.00,-64.13,15946
-1.15,8.29,-4.49,-0.54,-0.37,-0.49,-4.98,-35.53,-64.07,15980
-4.60,9.33,-7.01,-0.85,0.32,-0.66,-4.55,-34.45,-65.35,16014
-2.92,15.13,-9.72,-0.98,0.16,-0.02,-3.67,-33.10,-65.74,16048
12.90,24.02,-5.02,-1.37,1.33,-0.25,-2.40,-31.72,-66.47,16083
10.53,26.93,-1.97,-3.07,4.57,-4.29,2.70,-27.32,-67.95,16117
-7.24,-6.89,-15.71,-3.05,3.18,-5.81,10.26,-21.81,-67.03,16151
22.45,-36.34,5.12,-1.20,-6.68,0.04,6.47,-18.20,-68.20,16185
4.03,-5.46,14.58,-0.68,-2.86,4.70,1.55,-16.76,-68.62,16219
-38.22,27.53,-39.16,-1.08,5.67,0.22,3.60,-15.24,-69.18,16253
39.16,-9.07,-1.07,4.73,-9.87,1.84,1.74,-16.69,-68.97,16288
1.39,32.35,-7.27,2.02,0.38,0.20,-0.70,-20.36,-69.29,16322
-10.00,13.44,5.96,-0.32,0.43,-0.11,-0.29,-19.18,-69.16,16356
5.98,3.52,-1.16,0.14,-0.63,0.05,-0.38,-19.25,-68.88,16390
-5.21,13.11,-2.69,0.05,0.11,0.72,-0.98,-19.15,-69.20,16424
-7.55,1.11,-6.45,-0.17,-0.26,0.19,-0.94,-18.77,-67.92,16458
-6.02,7.19,-2.97,0.69,-1.09,-0.09,-2.16,-19.29,-69.19,16493
0.71,11.37,-3.11,0.61,-1.20,-0.79,-3.65,-20.05,-68.66,16527
-1.34,11.57,-5.91,0.53,-0.40,-0.75,-3.96,-21.19,-69.54,16561
1.41,10.72,-5.22,-0.17,0.07,-0.62,-3.96,-21.32,-68.93,16595
-0.39,7.41,-10.22,-0.30,0.66,0.05,-2.91,-21.24,-69.53,16629
-7.16,16.93,-0.17,-1.16,1.08,1.14,-1.99,-20.01,-69.63,16664
1.31,28.93,1.64,-3.23,2.46,0.47,2.24,-15.35,-69.85,16698
39.16,10.06,-31.96,-5.69,9.14,-4.60,12.67,-7.31,-66.14,16732
12.34,0.01,-27.38,-4.79,17.35,-7.96,29.99,2.95,-50.94,16766
4.17,-1.29,-13.18,-3.52,6.55,-1.19,36.47,8.14,-35.71,16800
-17.87,-4.52,-1.36,-0.88,0.66,2.69,39.16,5.23,-32.07,16834
-14.74,-2.27,6.44,0.56,-2.30,2.72,40.95,-1.13,-35.25,16869
39.16,39.16,-35.62,2.79,-2.16,-0.81,40.59,-2.78,-37.43,16903
2.50,9.76,-8.40,0.97,-2.02,-0.74,39.26,-0.83,-38.76,16937
-21.19,11.88,-2.17,-0.32,1.36,-0.78,38.12,-0.54,-37.45,16971
-1.14,-0.55,2.21,-1.59,0.30,-2.32,37.43,1.97,-35.94,17005
-5.68,14.34,-0.61,-0.08,-0.23,-0.75,36.47,3.77,-35.19,17040
4.75,17.60,3.69,-1.73,2.11,-1.81,35.84,5.41,-32.05,17074
5.24,9.69,-6.24,-2.12,2.49,-1.43,34.60,8.27,-27.48,17108
3.33,17.02,2.34,-2.60,3.45,-1.06,33.46,8.36,-21.92,17142
5.78,14.64,-4.60,-3.32,3.84,-1.42,31.38,9.13,-15.27,17176
14.24,15.88,-18.15,-4.23,6.13,-1.37,26.79,8.89,-5.26,17210
10.91,4.58,-23.55,-5.36,10.28,-3.50,17.52,7.45,4.05,17245
9.06,6.60,-22.69,-5.63,12.46,-4.88,3.23,3.24,10.00,17279
-9.29,-7.50,-29.71,-1.36,5.31,-1.80,-11.30,-0.56,9.47,17313
-2.86,7.17,-4.27,0.65,0.93,1.20,-12.51,-0.09,8.49,17347
-16.75,3.21,-1.84,-0.20,3.03,-0.71,-15.26,-0.50,7.22,17381
-15.45,0.68,-11.07,0.85,1.21,-0.10,-17.74,-0.13,4.98,17416
-11.14,3.56,-8.37,1.08,0.44,-0.27,-18.25,0.73,4.59,17450
-11.29,7.38,-3.74,0.96,0.48,-0.37,-19.04,1.71,3.27,17484
-5.20,13.26,-4.49,0.12,0.90,-0.46,-19.91,2.06,2.51,17518
-2.87,16.92,-1.00,0.11,0.52,0.15,-20.70,2.75,2.44,17552
14.28,4.81,-11.22,-3.11,4.41,-2.15,-24.32,-1.21,0.23,17586
7.06,3.67,-9.85,-6.49,10.21,-5.44,-31.69,-8.13,-6.90,17621
3.25,1.22,-18.64,-6.01,10.80,-4.89,-37.07,-17.58,-22.43,17655
-9.42,-2.32,-7.24,-3.27,6.86,-3.39,-35.84,-21.82,-33.72,17689
-3.13,2.75,-5.66,-1.25,2.95,-2.03,-34.10,-24.58,-37.85,17723
-5.66,3.28,-2.69,-0.01,0.63,-0.57,-33.09,-24.88,-39.94,17757
3.84,10.03,-2.49,0.37,-0.21,0.00,-33.06,-25.04,-39.35,17791
4.71,15.50,-5.81,0.10,0.81,-0.30,-32.59,-25.05,-39.58,17826
3.12,16.30,-3.14,-0.00,0.17,-0.36,-32.23,-25.42,-40.98,17860
-0.26,8.03,-1.49,-0.59,0.65,-0.66,-31.45,-25.71,-41.68,17894
-7.61,8.98,-2.86,-0.84,1.49,-0.33,-30.55,-25.67,-44.23,17928
-12.55,8.82,-1.60,-0.41,0.63,-0.91,-29.30,-25.87,-44.43,17962
-3.39,2.63,-6.54,-0.49,-0.18,-1.23,-29.13,-26.60,-44.91,17997
-7.35,5.38,-8.29,-0.04,-0.25,-0.86,-28.71,-27.00,-45.18,18031
-9.34,5.65,-8.16,0.30,-0.33,-0.60,-28.50,-27.39,-45.19,18065
-10.38,1.89,-8.69,0.87,-1.34,-0.55,-29.07,-28.49,-42.72,18099
-3.47,13.11,-10.97,1.30,-2.52,0.97,-31.23,-28.31,-40.53,18133
0.20,20.24,-9.54,1.20,-3.77,2.39,-33.70,-26.41,-36.35,18167
8.85,22.63,-10.61,1.70,-5.84,3.68,-37.45,-21.98,-28.38,18202
10.80,5.28,-23.45,3.22,-7.87,3.78,-37.84,-17.45,-18.71,18236
-17.48,-17.22,-18.07,3.60,-7.41,2.62,-34.60,-11.98,-7.82,18270
12.83,-7.53,-4.69,5.07,-6.78,2.09,-29.96,-7.41,-0.89,18304
1.04,5.54,2.96,3.51,-0.47,1.46,-27.62,-2.54,-0.95,18338
13.14,18.77,4.19,2.73,-3.55,0.44,-26.26,1.23,0.16,18373
-24.96,11.69,-25.48,0.11,7.12,-3.55,-29.68,-1.08,-4.65,18407
13.15,8.27,1.02,1.34,0.17,-1.60,-31.73,-3.36,-5.12,18441
-2.77,22.16,2.54,0.86,0.98,-0.04,-32.58,-3.64,-7.48,18475
-3.56,12.07,3.18,-0.36,1.63,-1.24,-34.04,-4.53,-9.03,18509
-14.88,10.64,-4.98,-1.49,6.35,-3.08,-36.82,-8.45,-16.52,18543
-3.13,11.15,1.32,-1.67,7.25,-4.69,-38.61,-13.84,-25.72,18578
-4.08,13.62,-3.61,-2.47,7.77,-7.58,-36.33,-22.35,-36.41,18612
-15.51,5.60,6.61,-1.26,3.25,-5.60,-29.63,-30.12,-45.73,18646
2.14,17.98,0.84,-0.23,0.78,-2.24,-27.38,-32.17,-45.63,18680
6.39,19.55,1.52,-0.46,-0.68,-0.43,-27.32,-32.59,-45.45,18714
5.64,10.50,-5.28,-0.87,-0.48,0.64,-28.11,-31.76,-46.07,18749
-6.00,9.49,1.56,-1.28,-0.44,1.58,-29.51,-29.26,-46.14,18783
-9.36,4.92,-8.40,-2.01,1.45,0.34,-29.66,-26.47,-47.46,18817
-5.76,2.20,-6.54,-1.62,0.36,0.72,-29.17,-24.23,-49.11,18851
-16.14,0.72,-7.47,-0.78,-0.18,-0.83,-28.66,-23.98,-50.23,18885
-9.46,2.18,-11.26,0.32,-0.39,-1.54,-28.27,-24.95,-50.26,18919
-5.80,12.34,-4.34,0.76,-1.05,-0.59,-28.97,-25.71,-49.37,18954
-1.57,16.31,-8.07,-0.05,-1.19,0.44,-30.63,-25.83,-49.02,18988
3.89,17.13,-14.98,-0.92,-0.10,0.08,-30.97,-24.85,-48.95,19022
-3.28,38.02,-9.85,-2.02,2.78,-4.03,-29.64,-26.56,-52.03,19056
-0.06,9.96,-2.94,-2.05,1.95,-7.55,-23.05,-32.78,-55.29,19090
25.79,6.27,4.65,-2.13,5.02,-6.32,-14.09,-35.78,-58.93,19125
25.02,-4.56,2.71,-5.33,9.77,-1.35,0.98,-29.85,-64.07,19159
1.92,11.88,-2.18,-6.75,12.32,-1.90,16.76,-22.08,-62.63,19193
-11.49,0.72,-10.39,-5.12,8.51,-2.82,28.69,-14.95,-56.23,19227
11.42,5.81,-16.13,-2.86,6.49,-3.62,34.26,-7.83,-48.52,19261
20.76,26.11,-39.16,-0.53,4.13,-0.20,38.34,-5.17,-41.90,19295
9.65,9.05,-4.56,1.46,-1.87,-0.67,38.67,-5.92,-42.96,19330
-3.48,32.96,-8.38,-0.31,1.32,0.81,38.47,-6.94,-41.92,19364
-14.29,8.89,-1.13,-1.18,0.39,1.75,39.26,-9.16,-40.56,19398
-15.45,2.61,-7.94,-1.13,-0.58,0.93,39.07,-9.38,-39.84,19432
-9.54,3.12,-9.93,-0.10,-1.96,-0.34,37.69,-9.27,-41.84,19466
-2.74,4.76,-7.80,0.21,-1.57,-0.98,36.39,-8.45,-43.86,19500
0.06,8.52,-5.22,-0.16,-0.85,-1.05,34.98,-7.26,-44.53,19535
-2.45,12.52,0.01,-0.24,-0.71,-0.39,34.38,-6.75,-45.89,19569
1.67,12.44,0.06,-0.70,-0.28,-0.35,33.12,-5.95,-45.22,19603
6.48,15.83,1.24,-1.64,1.64,-0.03,33.32,-5.52,-43.72,19637
11.20,14.45,-6.37,-2.92,5.78,-1.03,34.93,-3.60,-37.40,19671
10.33,11.03,-16.65,-3.66,10.12,-2.62,36.03,0.79,-22.32,19706
8.88,-0.29,-23.78,-2.40,8.73,-2.76,32.17,3.71,-10.98,19740
-5.92,5.55,-12.20,-1.02,5.32,-1.76,25.99,5.57,-4.59,19774
-2.34,5.37,-5.66,-0.27,1.94,-0.86,23.84,6.85,-2.63,19808
-7.04,5.66,-2.85,-0.22,1.97,-0.52,22.67,7.21,-1.15,19842
-8.10,4.95,-6.31,-0.06,1.25,-0.45,20.93,7.76,-0.22,19876
1.23,6.00,-10.54,0.07,1.07,-0.50,19.64,8.30,1.07,19911
-3.49,6.94,-8.56,0.07,1.76,-0.84,17.87,9.30,1.94,19945
-10.26,2.72,-9.01,0.16,2.12,-1.25,14.64,10.38,2.73,19979
-7.52,4.78,-4.27,0.77,0.62,-0.94,13.49,11.81,3.13,20013
-5.71,-1.81,-8.89,0.88,0.54,-1.00,11.39,12.79,1.96,20047
-8.02,9.57,-3.08,2.53,-1.14,0.61,12.22,14.22,0.41,20082
-5.00,12.68,-0.42,1.19,-0.55,0.00,13.68,15.84,-2.60,20116
5.00,18.95,-6.76,0.84,-0.13,0.86,14.66,16.43,-3.19,20150
5.18,19.35,-0.64,-0.69,0.86,1.24,15.19,16.05,-2.67,20184
9.43,14.26,0.31,-2.39,2.58,0.49,15.54,13.21,1.02,20218
6.44,10.38,-2.99,-3.84,6.22,-0.91,10.98,10.71,6.27,20252
10.23,-1.07,-23.00,-5.21,11.64,-4.01,-1.99,6.11,10.83,20287
-5.13,-6.81,-27.22,-5.44,14.92,-6.11,-24.28,-4.52,4.11,20321
-10.79,-5.17,-18.94,-3.69,11.54,-5.51,-34.98,-13.17,-8.56,20355
-9.65,1.22,-10.72,-1.47,5.20,-3.74,-37.77,-20.56,-17.74,20389
-5.78,1.12,-5.42,0.15,2.15,-2.05,-37.50,-23.53,-20.51,20423
5.88,18.25,-13.39,0.88,0.99,0.76,-38.13,-22.73,-21.73,20458
-6.04,18.64,-4.17,1.53,-1.79,-0.92,-37.75,-23.15,-21.38,20492
4.56,-4.68,-4.52,1.16,-2.05,-1.08,-36.88,-24.26,-18.72,20526
-6.23,21.85,-4.50,1.48,0.21,2.41,-37.09,-19.76,-16.60,20560
-10.64,12.19,-1.47,1.29,-2.48,0.63,-37.09,-17.96,-13.97,20594
2.62,-7.55,-7.39,1.86,-2.94,0.27,-36.03,-16.40,-9.84,20628
2.28,15.57,-1.80,1.75,-1.59,2.38,-35.37,-12.09,-8.39,20663
1.83,16.13,-3.70,0.01,-0.37,2.72,-35.31,-8.40,-6.69,20697
-4.98,11.57,-1.79,-0.90,-0.35,3.66,-33.94,-4.14,-6.62,20731
-7.97,1.64,-26.92,-0.54,-1.92,4.15,-31.64,-0.18,-4.41,20765
-26.72,5.02,-20.02,2.51,-3.90,0.39,-28.25,2.24,-0.57,20799
3.02,10.71,1.68,2.73,-2.08,-3.78,-26.48,2.59,0.64,20833
5.47,-5.34,6.89,0.04,7.68,-5.05,-32.74,-2.09,-5.58,20868
-5.38,0.59,5.44,-1.38,7.41,-2.91,-38.34,-7.38,-17.67,20902
-16.55,2.58,4.21,0.09,3.23,-2.02,-40.11,-9.70,-22.80,20936
32.78,38.71,4.41,0.20,2.76,-2.72,-40.66,-14.81,-23.59,20970
-36.36,-19.88,-21.85,0.38,2.12,-5.30,-39.49,-23.30,-30.11,21004
-17.93,7.58,-15.47,0.95,2.00,-1.70,-39.27,-26.86,-32.15,21039
-13.45,29.11,12.06,0.39,1.45,-2.04,-38.10,-29.44,-33.75,21073
8.52,24.91,4.20,-1.66,2.86,-4.17,-34.89,-33.86,-37.66,21107
11.94,18.76,-9.78,-2.77,5.62,-3.86,-29.52,-37.55,-44.74,21141
-15.99,16.13,-4.65,-2.84,5.04,-3.75,-21.53,-38.72,-52.66,21175
5.26,21.99,-3.78,-4.32,3.78,-4.96,-15.26,-37.93,-57.53,21209
14.42,-7.09,-17.40,-5.20,6.10,-3.82,-3.48,-32.65,-63.64,21244
-20.87,-3.95,-12.34,-2.52,4.20,-2.67,4.84,-28.84,-64.53,21278
-5.56,9.42,3.60,-1.30,1.88,-2.77,7.15,-27.78,-64.89,21312
-4.83,9.66,-7.48,-1.40,1.45,-2.77,11.98,-23.55,-65.16,21346
-4.44,11.74,-0.97,-1.10,1.52,-2.75,13.68,-21.19,-64.19,21380
4.93,5.25,-3.84,-1.02,-0.07,-2.07,14.79,-18.39,-64.69,21415
-0.56,10.88,-3.42,-0.57,-0.00,-0.64,14.82,-17.25,-64.38,21449
-3.35,15.11,-4.69,-0.70,0.40,0.24,15.49,-16.03,-64.44,21483
3.46,13.67,-7.51,-1.52,1.02,1.16,16.92,-14.76,-63.61,21517
2.46,18.67,-4.56,-2.96,3.78,1.10,20.81,-13.05,-61.37,21551
27.50,10.40,-25.14,-3.66,8.62,-3.98,28.44,-6.09,-52.86,21585
5.02,-11.17,-22.48,-1.63,8.98,-5.39,35.90,2.06,-40.57,21620
4.56,-3.17,-8.59,-0.86,5.62,-1.72,36.83,4.71,-32.93,21654
2.68,4.15,-0.97,-1.45,7.40,-1.24,37.11,5.32,-21.12,21688
-23.41,35.81,-35.57,-0.56,6.04,-1.65,34.89,7.07,-13.56,21722
30.48,8.96,-3.64,0.52,-2.32,-1.82,32.36,9.32,-12.07,21756
0.74,13.30,-13.57,0.82,0.70,-0.60,30.40,11.05,-10.27,21791
-5.95,13.07,-0.29,0.10,0.60,-0.26,29.20,11.27,-8.94,21825
-10.40,4.97,-9.12,0.45,-0.10,-0.01,28.52,11.17,-8.86,21859
-7.36,3.29,-4.64,0.60,-0.55,0.28,29.10,11.11,-10.39,21893
-5.33,6.54,-7.88,1.21,-1.06,0.64,29.77,10.48,-11.44,21927
-2.93,7.62,-4.06,1.17,-1.55,1.82,32.04,8.64,-14.41,21961
-2.58,13.73,-2.46,1.30,-3.07,3.82,34.45,5.79,-18.84,21996
-1.60,11.76,-3.45,1.42,-4.25,5.33,38.15,-2.08,-24.89,22030
2.63,7.12,-6.34,1.52,-6.79,5.86,39.01,-9.54,-34.27,22064
4.55,19.17,5.07,1.37,-6.18,4.13,36.12,-16.28,-42.41,22098
-6.91,10.19,-0.08,-0.31,-3.24,1.52,32.86,-18.66,-47.38,22132
-6.44,8.51,-5.24,-0.37,-3.19,0.79,29.55,-19.29,-50.61,22166
-2.37,6.46,-6.33,-0.49,-2.59,0.11,26.76,-18.17,-53.76,22201
-9.33,4.95,-5.53,-0.99,-0.73,-0.74,25.84,-17.06,-54.62,22235
-3.23,-0.90,-7.32,-0.95,-0.88,-1.38,24.41,-15.02,-54.68,22269
-7.67,6.14,-3.19,-0.38,-0.73,-1.15,24.07,-13.20,-55.51,22303
3.75,8.55,-5.21,-1.03,-0.19,-1.36,23.11,-11.55,-54.98,22337
2.69,11.75,-2.85,-1.08,0.44,-0.76,23.18,-9.05,-55.35,22372
2.32,16.60,-1.09,-1.78,0.90,-0.74,23.69,-7.19,-54.43,22406
5.85,16.08,-1.45,-2.96,2.65,-0.05,25.21,-4.06,-51.56,22440
4.85,21.13,-0.88,-4.33,4.00,0.09,28.35,0.15,-45.19,22474
12.34,23.95,-15.56,-5.57,8.63,-0.99,32.13,4.15,-33.94,22508
25.74,18.15,-39.16,-5.31,12.99,-2.55,31.75,7.23,-15.99,22542
18.67,0.18,-34.58,-4.51,10.76,-4.72,21.53,9.25,0.06,22577
2.03,-2.07,-15.45,-2.18,5.39,-2.95,12.29,8.96,5.50,22611
4.15,-7.80,-9.35,-2.46,4.90,0.48,6.21,6.33,8.86,22645
-0.31,-2.21,-7.55,-2.76,6.32,1.05,0.03,2.78,10.90,22679
-9.56,9.15,1.97,3.14,-3.13,-0.67,-4.78,3.58,9.16,22713
-20.48,34.83,-39.08,1.44,3.19,-0.66,-3.89,5.58,8.48,22748
-10.37,16.18,9.47,0.78,0.06,0.39,-4.05,5.57,8.13,22782
-1.59,0.00,-12.88,-0.44,1.73,-1.51,-7.54,5.45,7.63,22816
-8.99,9.49,4.65,1.02,0.17,0.22,-8.10,6.08,6.37,22850
-4.12,5.74,-1.31,0.02,1.00,-0.76,-8.87,6.05,6.50,22884
-6.16,4.57,-6.31,0.75,1.21,0.28,-10.35,6.52,5.47,22918
-10.15,6.69,-4.43,0.86,1.67,0.49,-11.44,7.48,4.25,22953
-7.69,14.25,-0.18,0.59,1.66,1.04,-11.66,8.43,3.62,22987
-4.61,19.10,4.40,-0.67,1.84,1.22,-13.33,9.21,1.62,23021
5.42,24.65,6.47,-2.28,3.16,0.38,-14.35,8.23,2.32,23055
19.26,5.19,-7.06,-3.96,6.19,-2.01,-21.40,3.77,-1.30,23089
-4.58,-2.14,-19.03,-5.16,12.14,-6.52,-31.45,-4.25,-10.98,23124
-6.94,-1.93,-9.66,-3.50,9.23,-6.12,-36.09,-11.72,-25.05,23158
-3.34,-1.28,-1.82,-1.30,3.84,-2.34,-36.03,-16.43,-29.93,23192
-3.17,6.61,-0.57,-0.17,1.90,-1.57,-35.06,-18.12,-32.40,23226
3.67,7.30,-5.48,0.00,1.39,-1.65,-34.20,-20.07,-33.38,23260
-5.95,12.13,-3.10,-0.11,1.31,-0.81,-34.13,-20.45,-35.43,23294
-4.71,13.82,-3.85,-0.63,0.66,-2.37,-32.81,-22.13,-37.28,23329
6.52,14.90,-13.43,-0.14,1.08,0.40,-32.08,-22.83,-38.75,23363
-14.26,10.73,6.09,-0.11,-0.31,0.76,-32.89,-21.37,-38.78,23397
-9.80,-2.15,-2.54,-0.44,-0.51,-0.91,-33.40,-21.51,-38.40,23431
-4.06,8.82,-10.04,0.79,-1.53,1.27,-34.35,-20.62,-37.17,23465
-0.34,16.00,-1.32,0.62,-2.15,2.18,-36.29,-18.17,-34.81,23500
4.94,15.88,-2.51,-0.19,-2.87,3.11,-37.88,-13.65,-29.60,23534
7.36,5.55,-18.70,0.59,-5.46,4.62,-38.37,-8.46,-24.99,23568
-16.17,-2.27,-25.97,2.69,-6.29,4.01,-35.69,-2.47,-16.16,23602
-9.03,-0.20,-15.93,5.00,-9.26,1.70,-31.07,2.79,-7.64,23636
2.09,2.14,3.32,4.08,-3.14,-2.14,-28.19,4.18,-5.14,23670
12.57,10.83,11.99,1.66,-0.31,-2.07,-29.22,3.05,-6.68,23705
10.09,34.37,-3.51,-0.80,5.79,-3.46,-33.75,-0.70,-12.15,23739
1.75,-0.97,-1.25,1.12,-0.54,-2.64,-37.50,-5.54,-16.25,23773
4.42,13.51,-8.33,1.34,0.49,-1.30,-37.61,-6.91,-17.00,23807
-4.40,10.10,-2.37,0.76,0.18,-0.79,-38.28,-8.80,-18.18,23841
-9.68,12.64,1.19,0.12,1.98,-2.03,-39.16,-12.15,-20.46,23875
-5.08,13.69,0.71,-0.73,3.29,-2.97,-39.71,-15.92,-24.50,23910
-5.05,14.54,-5.55,-1.47,4.24,-3.90,-39.62,-20.77,-30.25,23944
-4.80,14.26,-2.92,-2.11,4.19,-4.42,-36.86,-27.32,-35.84,23978
-6.95,9.37,-1.34,-3.07,4.84,-5.56,-31.88,-32.32,-43.19,24012
-7.08,8.87,-8.55,-2.64,3.78,-4.11,-25.55,-35.81,-49.21,24046
-6.85,2.72,2.76,-2.51,2.74,-4.23,-20.61,-36.70,-53.64,24081
-5.63,5.34,-9.16,-1.57,2.24,-3.44,-15.84,-38.07,-56.08,24115
-2.18,8.26,-3.29,-0.50,0.19,-2.01,-12.04,-38.98,-56.39,24149
-2.77,11.35,-5.96,-0.22,0.11,-1.37,-11.02,-39.24,-56.27,24183
-5.46,11.04,-5.28,-0.61,0.26,-0.12,-10.61,-38.89,-56.62,24217
-9.74,14.39,-3.89,-1.12,0.00,0.60,-11.11,-37.46,-57.82,24251
-3.23,21.79,-4.23,-2.40,0.51,-0.30,-11.43,-35.41,-59.30,24286
4.20,24.30,-11.40,-4.08,2.21,-3.62,-8.45,-32.11,-62.22,24320
2.76,8.99,-19.81,-3.97,1.88,-5.71,-3.04,-28.63,-64.34,24354
-13.36,-21.14,-37.65,-2.22,2.66,-4.56,1.86,-25.21,-64.81,24388
20.96,4.05,4.23,-1.92,2.41,-2.20,5.93,-23.57,-64.40,24422
13.50,1.31,-5.43,-2.54,7.72,-1.67,13.62,-19.85,-63.46,24457
3.27,4.56,-1.76,-3.34,10.09,-1.75,27.17,-15.10,-54.33,24491
-11.40,-0.01,-0.52,-3.30,8.00,-0.81,33.79,-11.62,-46.74,24525
-13.69,-2.59,1.47,-1.68,2.08,0.27,36.39,-11.02,-41.60,24559
39.16,6.34,38.98,-0.09,-0.10,-1.05,36.85,-11.20,-39.96,24593
39.16,39.16,-39.16,2.14,3.60,0.18,38.95,-11.33,-34.81,24627
19.76,-7.70,20.79,1.30,-5.12,1.37,36.82,-11.15,-39.23,24662
15.21,33.54,8.77,1.23,-3.17,2.77,36.04,-14.67,-40.91,24696
-10.00,23.58,6.57,-1.14,-0.38,3.18,34.14,-17.76,-41.10,24730
-20.45,11.69,-4.46,-1.06,-0.23,2.79,32.46,-19.60,-39.77,24764
-7.99,4.58,-8.03,-0.22,-2.32,3.47,29.61,-23.09,-41.55,24798
-14.82,6.53,-5.14,0.41,-3.35,2.59,26.86,-25.17,-43.91,24833
2.10,6.06,-7.67,0.45,-2.61,0.31,24.14,-26.29,-45.26,24867
0.99,12.15,-8.27,0.53,-2.25,0.57,21.91,-26.83,-45.54,24901
7.18,13.34,-7.36,-0.34,-1.18,1.50,19.66,-27.55,-46.08,24935
-4.77,12.22,-4.73,-0.85,-0.50,1.73,18.39,-27.95,-46.24,24969
-2.75,7.96,-0.99,-1.64,0.13,1.05,17.52,-28.09,-47.37,25003
-6.64,3.70,-9.37,-1.92,2.02,-0.47,18.80,-26.56,-46.35,25038
-0.95,2.44,-9.51,-1.66,1.78,-0.36,19.80,-25.37,-46.62,25072
-0.89,5.89,-7.58,-1.61,2.50,-0.56,21.57,-23.12,-45.21,25106
-0.79,7.07,-6.67,-1.57,3.60,-1.44,23.38,-21.40,-43.45,25140
-1.74,5.99,-9.17,-1.52,4.32,-2.11,25.43,-18.62,-39.94,25174
-0.61,6.87,-8.01,-0.69,3.17,-1.71,26.83,-15.80,-36.67,25208
3.94,7.35,-6.01,-0.81,3.21,-2.03,27.92,-13.45,-34.23,25243
0.81,5.89,-6.45,-0.84,4.54,-2.66,28.27,-10.08,-29.35,25277
-12.35,14.43,4.24,-0.15,4.04,-2.75,27.87,-7.00,-26.38,25311
-11.23,12.56,6.39,-2.06,4.63,-3.55,26.75,-2.84,-22.00,25345
8.40,12.04,0.28,-1.25,1.39,-1.65,24.44,-0.53,-19.47,25379
-0.97,9.24,0.26,-2.32,4.71,-2.39,22.68,1.91,-15.01,25414
-1.58,7.87,0.45,-2.95,5.02,-1.91,19.69,2.53,-7.50,25448
-2.17,7.54,-1.69,-3.32,5.90,-1.87,14.25,3.10,-5.73,25482
-4.31,6.01,-4.20,-3.34,5.56,-1.55,9.24,2.12,-1.46,25516
-3.28,4.78,-6.66,-2.84,5.19,-1.22,3.30,0.25,1.46,25550
-4.16,5.48,-6.44,-1.57,3.49,-0.19,-0.44,-0.69,1.81,25584
-9.78,6.83,-15.86,0.61,2.76,-0.24,-3.58,-0.98,2.50,25619
-7.16,3.47,-7.38,1.28,-1.41,0.00,-3.71,1.33,2.13,25653
-5.70,9.65,-2.15,0.27,1.63,0.15,-3.73,1.52,0.85,25687
-13.91,9.36,0.66,0.16,1.08,-0.04,-5.82,1.80,0.82,25721
-7.55,8.70,0.49,-0.25,0.69,-0.46,-6.45,1.72,0.25,25755
-0.41,9.82,-4.30,0.01,-1.01,-0.04,-6.11,1.43,0.54,25790
-0.48,9.10,-6.13,-0.10,-0.01,0.25,-5.99,1.53,0.89,25824
2.01,9.57,-1.74,0.25,-0.72,1.08,-4.69,1.84,1.64,25858
-4.89,9.28,4.47,-0.27,0.19,1.20,-7.34,2.16,1.80,25892
-7.84,8.07,-2.77,-0.86,1.19,0.33,-5.06,1.74,2.38,25926
-3.01,6.17,-5.45,-0.76,0.86,-0.42,-6.09,0.63,1.96,25960
-3.46,7.46,-6.59,-0.18,-0.01,-0.14,-6.64,-0.01,2.13,25995
-3.70,10.00,-1.99,-0.02,-0.51,-0.00,-6.47,-0.10,2.67,26029
-0.51,13.81,-0.96,-0.43,-0.97,-0.06,-5.28,0.22,2.89,26063
2.65,14.42,-4.00,-1.30,-1.15,-0.32,-4.82,-1.02,3.43,26097
10.19,17.56,-9.19,-2.04,-0.60,-0.45,-3.68,-2.51,4.37,26131
-8.85,23.17,-12.92,-3.23,1.40,-1.03,-4.50,-6.43,5.06,26166
-19.97,2.09,-21.88,-3.32,3.39,-3.35,-7.06,-10.61,4.95,26200
-8.00,7.85,-8.47,-1.29,3.27,-4.12,-10.58,-14.22,3.42,26234
-2.78,1.82,-4.91,-0.89,3.75,-3.08,-13.52,-18.55,0.77,26268
-5.68,1.04,-3.26,0.20,3.22,-1.72,-14.83,-20.36,-0.41,26302
-5.69,3.48,-0.52,0.62,2.34,-0.08,-16.28,-21.05,-2.09,26336
-2.19,7.44,3.30,0.47,1.77,0.96,-17.63,-21.50,-2.53,26371
-2.99,8.15,2.48,0.04,2.32,1.33,-18.93,-21.76,-2.73,26405
-1.85,9.51,3.84,-0.48,2.36,2.08,-21.57,-21.32,-4.98,26439
-4.32,8.59,4.44,-0.98,2.04,2.35,-24.51,-21.10,-6.91,26473
-7.79,7.75,2.01,-1.30,1.84,2.32,-27.59,-20.01,-7.91,26507
-10.40,6.56,0.33,-1.41,1.51,1.77,-30.39,-19.38,-9.21,26541
-18.28,39.16,-24.76,-1.12,1.07,0.88,-32.62,-18.27,-10.16,26576
-5.77,1.36,-0.27,1.39,-0.26,-1.01,-33.72,-17.63,-10.36,26610
-1.98,12.88,-4.61,0.90,-0.24,-0.25,-33.48,-16.56,-8.61,26644
-5.39,8.24,-0.92,0.48,0.02,-0.68,-33.84,-16.49,-8.96,26678
-0.31,13.39,-5.67,-0.38,-0.01,-0.38,-33.63,-16.43,-8.68,26712
-3.75,9.75,-2.43,-0.36,-0.11,-0.35,-34.33,-16.81,-8.08,26747
-0.34,10.00,-2.02,-0.86,0.43,-0.62,-34.65,-17.73,-8.48,26781
1.66,11.15,-2.61,-1.63,1.57,-1.19,-35.37,-18.81,-10.65,26815
2.08,8.46,-8.65,-2.59,3.38,-1.61,-36.35,-21.06,-14.10,26849
3.08,10.97,-7.67,-2.90,4.50,-1.85,-37.94,-24.66,-21.65,26883
1.71,6.89,-12.41,-3.12,5.23,-2.13,-37.77,-26.97,-29.80,26917
-1.05,4.60,-17.17,-3.11,5.44,-1.97,-34.60,-29.60,-38.83,26952
-3.41,7.80,-13.38,-2.26,4.58,-1.49,-31.54,-29.71,-45.95,26986
-4.29,5.35,-8.89,-0.68,2.41,-0.53,-29.16,-29.44,-51.20,27020
-6.14,8.14,-3.82,0.27,1.66,0.02,-27.05,-29.33,-53.84,27054
-3.96,7.44,-2.05,-0.15,1.73,-0.51,-25.65,-28.72,-54.88,27088
-4.01,3.73,-7.10,-0.27,1.72,-0.58,-23.63,-28.34,-57.10,27123
-4.98,1.23,-9.44,0.34,1.58,-0.19,-20.99,-28.06,-59.28,27157
-7.19,1.98,-6.48,0.84,1.17,-0.44,-19.37,-29.29,-59.46,27191
-12.85,10.29,-7.28,1.35,1.14,0.45,-17.64,-30.50,-59.28,27225
-6.78,21.58,0.61,0.38,0.81,0.73,-17.00,-29.67,-59.76,27259
7.66,36.74,3.49,-2.05,3.15,0.22,-14.48,-27.57,-60.80,27293
17.95,27.12,-4.14,-3.62,5.55,-2.38,-6.15,-23.31,-64.09,27328
12.50,-0.64,-16.65,-4.49,8.75,-5.56,6.50,-18.31,-64.38,27362
-11.50,-12.17,0.76,-3.61,5.24,-3.36,18.55,-11.53,-59.87,27396
16.63,3.35,0.78,-3.45,3.32,-0.08,21.59,-8.21,-57.09,27430
-1.23,-9.47,-16.00,-4.16,10.10,-3.38,29.16,-2.28,-47.65,27464
-7.76,9.22,-28.93,-0.99,3.69,-2.18,32.56,3.17,-38.28,27499
-11.10,4.97,-1.79,0.09,3.62,-0.96,33.08,3.46,-34.45,27533
-16.62,21.52,-17.05,0.84,3.58,-1.75,33.09,4.44,-32.24,27567
4.31,9.06,5.40,0.47,-0.10,-0.84,32.58,4.75,-31.57,27601
-9.26,16.90,-5.97,-0.91,2.39,0.95,33.44,4.52,-28.41,27635
-7.14,8.30,-1.94,-1.75,2.60,-0.94,33.47,4.17,-24.73,27669
-3.38,-3.46,-9.85,-1.15,1.68,-1.23,32.89,5.36,-22.16,27704
-10.56,6.16,-7.37,-0.57,1.76,-1.03,31.91,6.37,-20.48,27738
-12.60,0.09,-2.12,-0.96,1.68,-2.31,29.74,8.07,-17.96,27772
-3.21,11.33,-2.47,-0.74,1.83,-1.83,28.12,9.30,-15.21,27806
-7.94,10.82,2.25,-0.29,-0.17,-1.82,26.48,10.01,-14.62,27840
2.75,13.08,-3.47,0.16,-0.73,-0.22,26.16,10.41,-15.17,27875
-2.10,8.75,-4.41,0.29,-1.35,0.29,27.08,10.22,-15.90,27909
-0.64,9.19,-9.62,0.68,-1.58,1.12,28.49,9.25,-16.91,27943
-5.49,11.21,-7.13,0.49,-0.84,1.09,30.21,8.23,-18.17,27977
-4.29,11.71,-8.52,-0.27,-1.77,1.71,32.17,6.59,-20.17,28011
0.76,16.23,-11.30,0.23,-4.12,2.51,34.07,3.61,-24.58,28045
2.09,11.08,-20.26,1.90,-6.08,2.57,35.27,0.69,-32.27,28080
-3.43,-5.26,-15.52,4.57,-8.52,3.13,33.34,-4.65,-44.49,28114
-1.06,-7.83,-4.01,5.41,-6.34,2.51,28.44,-11.25,-52.21,28148
-5.26,4.20,4.84,4.56,-3.84,1.50,24.41,-17.71,-57.13,28182
11.89,25.49,6.17,0.62,1.67,-1.10,23.60,-18.44,-57.22,28216
-39.20,-2.66,-17.76,0.16,6.04,-4.60,30.40,-14.97,-51.24,28250
-5.16,-2.25,-0.92,0.42,3.66,-3.81,32.77,-11.27,-47.79,28285
-2.70,9.66,-1.76,0.66,1.52,-1.60,33.37,-9.53,-46.76,28319
-5.72,14.90,3.73,-0.15,2.52,-2.27,34.38,-7.50,-44.58,28353
-9.15,11.84,-1.57,-0.90,4.19,-3.10,34.62,-3.62,-38.22,28387
0.69,13.69,-2.09,-1.27,4.00,-3.22,34.71,-0.15,-33.53,28421
-5.39,10.68,-4.98,-1.77,4.89,-4.04,33.31,4.49,-26.32,28456
-4.74,10.00,-3.25,-1.39,3.27,-3.29,30.55,7.44,-21.22,28490
-1.89,15.43,-1.74,-1.69,3.02,-2.92,28.08,9.69,-16.76,28524
-2.91,13.13,-0.10,-1.89,2.24,-2.86,24.76,11.74,-12.54,28558
-6.42,6.84,-2.53,-2.29,1.88,-2.93,21.41,12.74,-8.70,28592
-6.20,2.66,-5.43,-2.01,0.93,-2.72,18.43,12.77,-5.92,28626
-4.03,-1.30,-8.23,-0.86,0.32,-2.44,15.84,13.34,-3.84,28661
-4.49,11.74,-7.05,0.76,-0.56,-0.28,15.46,14.29,-4.98,28695
-6.26,15.94,-2.54,0.28,-0.38,0.45,15.95,14.15,-5.19,28729
-10.28,15.82,-1.70,-1.05,-0.01,0.22,16.75,13.30,-4.21,28763
2.96,16.01,-6.40,-2.78,1.11,-1.55,15.61,12.15,-0.98,28797
-1.22,27.64,-14.48,-3.58,2.05,-5.07,11.05,11.53,2.25,28832
2.96,-0.24,-8.41,-3.72,1.28,-7.63,3.89,9.85,5.79,28866
14.44,16.25,5.53,-1.92,1.90,-6.13,-6.69,7.35,6.94,28900
25.45,-3.60,0.01,-3.70,6.25,-3.78,-13.72,2.95,7.47,28934
12.89,5.73,6.87,-4.72,7.38,-0.62,-22.16,-2.38,4.25,28968
-4.86,11.04,1.15,-4.82,7.14,1.08,-29.52,-6.01,-0.77,29002
-13.37,4.76,-3.36,-4.00,4.71,1.64,-32.89,-7.41,-5.51,29037
-9.92,-3.85,-9.69,-3.00,6.61,-1.38,-36.93,-10.29,-10.27,29071
-14.73,39.16,-39.16,2.47,1.90,1.40,-38.13,-9.98,-14.07,29105
24.70,-3.05,6.70,2.03,-4.84,1.65,-37.01,-9.38,-9.34,29139
-8.22,14.15,3.00,0.21,-1.60,0.97,-36.01,-6.71,-7.98,29173
-10.42,23.75,5.12,0.07,-2.30,1.19,-34.38,-5.00,-5.20,29208
1.13,3.77,-6.17,-0.79,-1.22,0.45,-33.79,-4.60,-3.22,29242
-4.24,6.82,-2.07,-0.73,-0.72,1.35,-32.55,-3.64,-1.96,29276
-4.16,12.59,-2.67,-1.58,-0.16,-0.24,-32.11,-3.79,-1.42,29310
8.62,3.48,-5.58,-2.39,0.95,-1.50,-33.41,-6.94,-1.56,29344
5.81,12.81,-5.07,-2.95,3.08,-1.17,-35.11,-10.03,-4.69,29378
4.35,12.44,-4.70,-3.69,4.37,-1.58,-41.06,-13.81,-10.73,29413
10.57,10.18,-13.19,-4.76,7.04,-2.73,-39.89,-17.70,-20.56,29447
6.58,10.19,-23.96,-4.78,8.10,-2.59,-39.16,-20.52,-31.44,29481
-0.12,2.05,-23.07,-2.41,4.49,-0.76,-36.36,-20.58,-40.27,29515
2.49,9.68,-9.17,-2.17,4.68,-0.43,-33.37,-19.50,-44.99,29549
2.02,13.28,-9.42,-2.27,4.87,-0.17,-30.02,-18.90,-51.05,29583
1.52,10.56,-13.81,-2.43,6.48,-0.56,-23.21,-17.54,-58.13,29618
4.69,7.28,-20.67,-2.27,7.26,-1.13,-15.80,-15.74,-62.06,29652
-3.52,4.96,-20.19,-1.32,6.98,-1.52,-5.17,-14.29,-65.30,29686
0.50,4.11,-17.29,-0.98,6.15,-2.02,3.07,-13.53,-65.20,29720
-1.18,3.30,-13.89,-1.09,6.62,-2.20,11.20,-11.58,-63.68,29754
-10.33,5.87,-7.78,-0.40,4.32,-1.07,18.99,-9.60,-60.55,29789
-12.24,4.79,-4.02,-0.66,5.11,-2.11,23.72,-8.04,-57.79,29823
-20.86,1.12,-18.68,0.49,3.24,-1.07,27.26,-6.68,-54.53,29857
-11.88,5.45,-6.13,1.30,0.71,-0.61,27.52,-7.59,-54.31,29891
-7.21,5.85,-7.08,1.93,-1.03,0.02,27.05,-8.65,-54.94,29925
-3.46,12.41,-2.32,1.77,-0.98,0.43,25.74,-11.17,-57.13,29959
3.35,9.52,-4.14,1.22,-0.40,0.26,25.08,-12.83,-57.28,29994
-0.09,10.63,-6.70,1.41,0.09,1.13,25.53,-14.13,-56.53,30028
-1.26,20.55,0.33,0.93,0.01,2.70,25.45,-18.36,-56.83,30062
0.82,26.81,15.26,-1.51,1.89,4.07,26.35,-19.91,-56.11,30096
-0.91,20.09,5.04,-3.15,4.25,3.61,29.64,-20.75,-52.06,30130
9.39,-1.51,-39.16,-4.23,10.70,-7.15,37.12,-12.80,-41.00,30165
-11.11,-1.47,-12.52,-2.13,5.99,-8.45,38.64,-0.31,-28.18,30199
-1.70,-10.44,-0.10,-1.68,4.72,-6.53,33.62,9.28,-20.55,30233
-1.75,-4.32,14.25,-0.54,2.02,-0.92,31.75,11.18,-17.38,30267
0.33,21.00,4.36,-0.06,1.58,-0.70,30.85,10.61,-15.93,30301
3.91,16.51,0.00,-0.71,1.41,-1.99,28.59,11.75,-13.78,30335
5.82,17.26,-11.45,-0.44,1.49,-1.55,25.93,13.40,-11.71,30370
-9.60,4.87,-7.34,0.46,-0.57,-1.32,23.62,14.53,-11.08,30404
-5.62,7.71,-5.13,1.09,-1.06,-0.01,23.93,14.92,-12.36,30438
-8.63,19.25,1.15,1.35,-2.43,1.12,25.10,14.73,-15.71,30472
2.16,14.42,-7.47,1.30,-3.49,1.64,27.57,13.52,-19.76,30506
6.82,13.56,-9.95,1.99,-5.60,4.19,30.97,9.87,-27.10,30541
1.96,6.59,-21.28,2.20,-6.51,4.28,33.08,3.43,-36.58,30575
-7.79,-12.57,-12.98,3.67,-7.65,4.37,31.85,-2.57,-46.21,30609
-10.13,-9.77,3.53,4.63,-6.22,1.83,27.99,-8.59,-53.71,30643
-7.20,39.16,-24.72,3.46,-1.95,-0.24,24.14,-12.48,-56.85,30677
-6.53,-8.26,-6.34,1.95,-1.58,-2.09,22.99,-12.63,-57.69,30711
3.64,18.65,-7.14,2.57,-1.23,0.18,20.56,-15.77,-59.95,30746
10.01,19.82,1.21,1.49,-0.40,0.54,19.44,-17.83,-61.12,30780
-5.99,9.29,-1.66,0.41,1.90,-0.24,22.48,-17.48,-58.71,30814
-2.09,9.68,-1.96,-0.02,2.63,-0.50,24.98,-17.42,-57.41,30848
5.29,9.07,-7.31,-0.43,2.75,-0.60,27.30,-16.65,-54.78,30882
4.13,11.41,-5.23,-0.43,3.09,-0.48,30.21,-15.35,-51.42,30916
4.59,14.40,-0.35,-0.98,3.52,-0.44,33.35,-13.75,-47.31,30951
2.97,11.08,-0.74,-1.18,3.16,-0.08,35.75,-13.27,-43.54,30985
18.95,15.86,7.31,-0.98,1.82,1.40,36.69,-14.29,-40.63,31019
12.05,13.53,-18.96,-1.74,7.04,0.08,39.75,-14.50,-33.18,31053
13.38,8.93,-9.95,-2.27,5.51,0.36,41.06,-15.14,-24.25,31087
4.55,15.78,4.97,-3.86,5.53,-2.48,40.41,-13.99,-15.96,31122
2.69,22.11,-2.60,-6.35,7.33,-4.83,37.81,-11.12,-6.59,31156
-6.42,10.65,-12.68,-5.05,5.56,-4.34,31.54,-10.04,2.24,31190
-9.03,14.58,-13.44,-3.73,0.52,-2.01,29.04,-10.89,4.71,31224
-1.43,13.90,-16.01,-2.79,-2.57,-0.47,30.84,-13.39,2.60,31258
1.54,12.63,-22.54,-0.73,-4.51,-0.52,34.80,-14.48,-3.42,31292
2.97,12.26,-19.49,1.08,-4.50,-1.04,37.99,-13.07,-9.08,31327
-0.65,16.34,-18.93,1.63,-2.07,-2.67,39.13,-10.13,-12.16,31361
-15.53,3.63,-15.93,2.63,1.42,-3.85,37.34,-3.58,-10.76,31395
-15.39,-13.01,-2.78,3.53,1.54,-2.61,34.83,1.20,-10.98,31429
-10.78,-17.32,10.76,4.29,3.59,-2.24,31.45,5.61,-10.22,31463
-2.58,-11.67,16.56,3.32,7.54,-2.59,26.02,9.76,-7.09,31498
-22.30,-31.03,10.15,2.66,8.12,-0.12,19.98,11.49,-2.38,31532
38.99,39.16,39.20,-6.75,-6.16,0.78,25.52,12.74,-13.27,31566
0.30,34.06,2.20,-0.88,0.18,-0.65,22.77,14.92,-10.49,31600
16.88,27.96,-2.16,-1.37,-1.24,0.16,23.24,14.00,-8.96,31634
-0.46,22.38,-2.40,-2.84,3.04,-0.43,21.53,12.86,-5.70,31668
17.50,14.31,-11.10,-5.40,4.33,-0.35,18.58,10.03,0.70,31703
32.01,8.81,-27.71,-6.47,11.16,-4.26,5.70,5.17,9.94,31737
11.71,0.70,-23.53,-7.38,9.86,-7.73,-10.44,-3.95,11.46,31771
2.59,6.98,-21.13,-3.29,6.00,-5.79,-19.67,-11.90,8.71,31805
7.62,5.85,-19.43,-1.81,-1.14,0.82,-21.08,-14.57,8.52,31839
-2.65,8.35,-9.53,-0.85,-2.00,2.60,-19.26,-14.54,10.45,31874
2.68,8.46,-16.56,-1.31,-0.02,2.82,-19.79,-13.94,11.22,31908
4.26,9.21,-16.45,-1.87,5.45,0.88,-24.89,-14.16,7.85,31942
-3.26,2.02,-22.42,-2.81,8.14,-0.17,-32.62,-15.52,-0.37,31976
-6.52,-1.34,-21.16,-2.37,7.65,0.21,-38.76,-16.21,-13.11,32010
-6.45,-4.34,-18.29,-1.33,5.70,1.51,-40.44,-13.56,-21.02,32044
-10.42,-2.68,-16.21,-0.31,4.99,2.07,-39.61,-10.89,-27.96,32079
-8.73,3.63,-25.18,0.86,5.69,1.73,-37.36,-8.45,-36.29,32113
-17.41,39.16,38.98,3.18,-0.22,3.20,-35.59,-6.83,-40.05,32147
25.07,39.16,14.01,1.70,3.83,-2.92,-33.72,-11.21,-45.05,32181
-11.52,9.62,-13.57,0.04,3.82,-2.44,-31.26,-14.29,-48.77,32215
-0.37,0.75,-11.58,0.68,0.78,0.65,-29.19,-15.55,-50.64,32250
-10.12,5.31,-7.15,1.31,-0.15,1.34,-28.97,-15.51,-50.20,32284
-7.49,8.77,-2.48,1.89,-2.00,0.90,-29.73,-15.67,-49.05,32318
-0.41,8.82,-4.13,1.35,-2.34,0.13,-31.61,-16.65,-46.11,32352
2.35,7.93,-6.40,0.85,-1.87,-0.14,-32.91,-17.33,-43.64,32386
-1.92,7.78,-5.58,0.26,-0.04,-1.11,-33.40,-17.80,-43.25,32420
0.42,10.13,-6.70,0.19,-0.64,-1.03,-33.62,-19.37,-41.73,32455
2.72,7.49,-5.49,-0.41,-0.22,-1.91,-33.31,-20.99,-41.68,32489
4.55,9.17,-9.30,-0.96,1.63,-2.69,-32.17,-23.15,-42.79,32523
1.63,8.07,-8.67,-1.23,2.23,-2.76,-29.16,-25.48,-46.05,32557
2.92,5.25,-10.12,-1.41,2.50,-2.58,-26.40,-27.45,-48.29,32591
0.82,7.28,-9.74,-1.21,2.49,-1.81,-23.18,-28.38,-51.26,32625
-1.39,4.93,-10.66,-1.48,3.15,-1.55,-19.69,-28.78,-52.84,32660
-2.85,8.92,-6.07,-1.58,3.30,-1.06,-16.00,-28.73,-56.52,32694
-4.05,7.36,-8.28,-1.49,3.91,-1.53,-10.57,-27.83,-58.78,32728
-4.37,2.86,-10.32,-1.39,3.62,-1.35,-6.43,-27.04,-60.82,32762
-4.19,7.97,-7.91,-0.70,3.44,-1.31,-2.28,-26.22,-61.62,32796
-0.13,6.32,-7.86,-0.58,3.72,-1.49,4.09,-25.14,-61.72,32831
-2.02,6.93,-8.06,-0.41,2.39,-0.44,8.11,-24.98,-61.25,32865
3.89,9.25,-4.74,-0.46,2.86,-0.68,11.24,-24.61,-61.14,32899
5.15,10.34,-7.02,-0.79,4.59,-1.66,16.14,-23.03,-59.30,32933
4.01,5.28,-13.81,-1.09,6.35,-2.48,22.93,-20.21,-55.23,32967
-1.63,1.73,-16.59,-0.80,5.21,-2.01,29.85,-17.13,-50.35,33001
-4.24,3.03,-15.75,-0.30,4.83,-1.90,33.69,-14.95,-44.88,33036
-14.70,2.81,-12.10,0.19,2.27,-1.07,36.47,-13.55,-40.37,33070
-0.95,10.90,-4.66,0.49,1.35,-1.85,36.79,-12.76,-37.71,33104
-6.92,9.20,-4.26,-1.06,5.04,-3.72,38.51,-9.03,-32.97,33138
-16.22,-2.01,-7.32,-1.25,3.79,-3.51,37.62,-2.65,-25.97,33172
-7.47,4.97,-4.42,-0.01,2.35,-2.65,36.61,1.08,-23.02,33207
-8.20,8.32,-0.50,0.06,2.03,-2.41,35.46,3.64,-19.47,33241
-1.16,14.01,-0.24,0.09,1.48,-1.87,33.92,5.69,-17.07,33275
-5.80,11.13,-0.14,-0.32,1.95,-2.39,31.67,7.50,-14.78,33309
1.90,11.65,-2.70,-0.39,1.35,-1.87,29.17,9.82,-12.10,33343
1.13,9.32,-3.37,-0.60,1.50,-1.13,27.99,10.57,-10.38,33377
-2.84,8.17,-4.23,-1.02,2.04,-1.26,25.91,11.14,-7.26,33412
-0.59,7.99,-3.11,-0.45,0.70,-1.00,24.51,12.47,-5.85,33446
-6.99,6.48,-4.17,-0.84,1.56,-1.95,22.13,12.76,-4.28,33480
-0.12,7.57,-3.24,-0.64,0.17,-0.97,20.53,12.95,-2.95,33514
-2.13,8.50,-4.81,-0.99,0.65,-0.85,19.67,12.51,-1.14,33548
-4.95,9.14,-2.73,-1.06,0.58,-0.75,18.37,12.85,-0.13,33583
-5.57,6.97,-4.05,-0.97,0.12,-0.88,17.76,12.41,1.27,33617
-2.41,8.20,-6.45,-0.71,-0.97,-0.81,17.11,12.13,1.83,33651
0.42,12.17,-9.60,-0.70,-1.73,-0.64,18.20,11.65,2.72,33685
1.78,13.91,-15.99,-1.59,-1.94,-0.34,19.64,11.31,2.10,33719
0.28,15.14,-14.45,-3.08,-0.15,-0.96,20.72,9.73,3.86,33753
-21.03,2.76,-11.77,-3.32,1.94,-3.12,16.73,7.76,8.65,33788
1.63,8.59,-5.33,-2.66,3.39,-4.58,9.21,7.38,11.46,33822
-1.43,0.44,-7.28,-2.46,4.51,-4.76,0.19,5.70,13.83,33856
-6.35,1.51,-6.12,-1.08,3.56,-2.68,-9.00,4.41,14.22,33890
-5.18,3.95,-5.04,-1.10,2.64,-1.01,-14.26,2.37,13.45,33924
-4.13,5.26,-3.51,-1.33,2.58,-0.44,-19.12,0.86,11.46,33958
-2.65,6.08,-2.40,-1.86,3.25,-0.04,-23.75,-0.80,9.18,33993
-3.72,6.48,-2.30,-2.19,3.98,0.37,-27.77,-2.35,5.03,34027
-5.31,6.26,-2.73,-2.41,4.00,0.62,-31.92,-3.67,0.34,34061
-8.57,5.10,-4.52,-2.52,3.67,0.79,-34.61,-4.14,-4.68,34095
-10.04,4.40,-4.51,-2.53,2.92,0.77,-35.44,-4.19,-8.37,34129
-11.61,3.95,-8.61,-2.17,0.97,0.81,-36.45,-4.87,-9.88,34164
-9.04,8.95,-12.00,-1.59,1.51,-0.88,-36.12,-5.74,-11.88,34198
-5.49,5.75,-5.88,-0.82,0.36,-1.35,-36.90,-8.08,-13.58,34232
-2.64,3.15,-1.36,-0.45,0.77,-0.88,-37.04,-8.90,-13.61,34266
-7.68,9.65,-5.36,-0.63,1.19,-0.92,-37.20,-9.76,-16.09,34300
-2.26,5.88,-1.00,-0.48,0.78,-0.94,-37.37,-12.03,-17.01,34334
-4.92,8.17,-5.77,-0.91,1.31,-1.05,-37.27,-12.82,-19.35,34369
-2.61,12.55,-9.99,-1.14,1.53,-1.08,-37.30,-14.98,-21.29,34403
-1.19,0.56,-6.52,-0.71,0.60,-1.56,-36.69,-17.10,-23.81,34437
-2.79,4.65,-14.00,-1.83,2.32,-3.01,-36.06,-20.07,-25.55,34471
1.83,4.71,-6.99,-1.20,1.36,-2.22,-34.80,-23.44,-28.44,34505
-1.11,7.97,-8.04,-0.95,1.98,-1.63,-33.91,-25.20,-30.77,34540
-4.78,9.31,-10.25,-1.09,2.55,-1.26,-32.29,-27.05,-33.98,34574
0.29,10.75,-10.73,-0.96,1.82,-0.83,-30.91,-28.44,-36.51,34608
10.21,26.40,-6.49,-2.79,3.53,-1.59,-28.88,-29.01,-40.79,34642
12.39,16.80,-14.90,-4.22,4.07,-3.57,-24.70,-30.12,-46.95,34676
9.92,-10.42,-15.56,-4.17,5.61,-3.76,-17.73,-30.52,-52.81,34710
9.64,-6.77,-14.38,-3.96,6.61,-0.08,-7.60,-27.93,-58.84,34745
-11.83,-3.14,-19.30,-3.72,9.10,-2.09,0.28,-24.67,-61.56,34779
-10.00,-10.36,-18.43,-2.70,8.03,-3.84,11.24,-21.73,-60.74,34813
10.17,5.70,-32.04,-0.66,6.47,-3.39,21.22,-18.42,-56.11,34847
-0.55,-5.07,-5.72,2.37,0.13,-0.83,24.06,-19.53,-54.18,34881
-19.84,15.72,-6.53,0.65,3.39,-1.40,25.69,-19.61,-49.25,34916
-8.62,17.12,-2.65,-0.81,4.10,-2.66,29.66,-17.95,-49.68,34950
-7.71,29.38,15.45,-1.19,2.36,-1.46,31.99,-15.11,-46.42,34984
-7.31,3.08,-14.34,-4.07,8.17,-6.50,35.82,-5.54,-34.35,35018
-0.02,-6.66,-11.75,-1.95,3.00,-2.84,36.06,0.35,-27.71,35052
-14.74,-3.66,-3.02,-0.78,2.64,-2.84,35.11,3.70,-24.22,35086
-9.12,13.35,-6.39,-0.39,1.71,-1.81,33.53,5.92,-21.73,35121
-0.00,3.84,-3.99,-1.26,2.68,-3.06,31.35,8.51,-19.35,35155
-25.70,6.78,-8.21,-0.54,1.72,-2.22,28.34,11.27,-15.97,35189
-7.52,13.92,2.41,-0.74,0.44,-1.50,27.62,12.82,-15.26,35223
-8.63,3.79,0.68,-1.24,0.53,-1.74,25.91,14.51,-13.91,35257
-4.91,8.30,-5.03,-0.23,-0.08,-0.18,25.34,14.85,-14.62,35291
-3.70,2.74,-9.36,0.38,-1.11,0.34,25.78,14.67,-15.49,35326
-0.91,10.48,-11.93,1.02,-1.47,1.67,27.05,13.40,-17.45,35360
2.31,14.06,-8.90,0.23,-2.33,3.13,30.06,10.87,-20.37,35394
12.73,19.19,-4.06,0.12,-3.61,4.97,33.67,5.69,-24.58,35428
9.38,-0.83,-26.28,0.64,-5.07,5.17,36.32,-0.60,-30.87,35462
-29.27,-16.58,-37.70,3.49,-6.23,4.95,36.32,-7.51,-38.61,35497
13.69,-4.43,-0.26,5.02,-9.88,3.68,30.94,-13.72,-49.77,35531
-9.24,-8.32,8.47,3.93,1.12,-3.17,28.62,-15.90,-49.90,35565
-7.44,5.33,1.50,3.02,-0.85,-0.63,29.16,-17.64,-49.21,35599
36.08,22.71,6.98,-0.53,3.03,-3.15,31.16,-16.19,-44.55,35633
-15.88,-19.95,-39.16,-2.97,10.77,-10.90,34.77,-4.93,-33.47,35667
-6.73,5.86,10.17,-0.02,0.31,-4.88,32.56,2.02,-30.15,35702
-7.20,17.30,-4.97,-0.65,1.86,-4.37,30.40,7.22,-27.19,35736
0.40,19.27,4.73,-2.06,2.89,-5.76,26.83,11.39,-23.03,35770
-14.31,18.99,0.92,-1.78,3.71,-5.17,21.05,16.68,-16.18,35804
4.07,16.08,-1.95,-2.55,3.59,-5.81,14.64,19.61,-11.15,35838
-5.08,13.01,-2.83,-2.92,4.54,-5.82,4.55,19.98,-7.53,35873
-0.76,21.60,-0.32,-2.76,3.79,-4.87,-4.56,18.34,-3.30,35907
1.67,17.43,-2.31,-2.87,3.29,-3.97,-11.22,15.61,-1.80,35941
30.57,22.54,-6.08,-4.45,3.61,-4.48,-16.18,9.91,-1.30,35975
4.62,-0.03,-22.31,-5.77,8.21,-9.15,-28.41,-0.63,-3.81,36009
16.57,-17.30,-23.01,-3.73,8.04,-8.80,-35.33,-11.71,-10.52,36043
5.76,-10.97,-8.85,-2.00,5.33,-3.41,-38.19,-20.96,-20.61,36078
5.23,-2.51,-1.57,-0.73,4.20,-0.95,-38.28,-22.64,-27.51,36112
-5.42,-0.97,0.48,-0.11,3.56,-0.17,-38.09,-23.33,-32.11,36146
-36.11,-20.68,14.75,4.42,0.20,-2.22,-37.11,-25.39,-35.11,36180
-9.02,9.61,-0.54,1.93,-0.83,-1.62,-36.51,-28.52,-33.89,36214
-20.21,9.78,-0.87,0.72,-0.24,0.94,-38.02,-27.65,-33.27,36249
-19.79,8.80,0.82,-0.37,-0.35,-0.92,-38.51,-28.22,-33.06,36283
-7.46,2.40,-10.49,0.86,-1.67,0.13,-38.37,-28.21,-31.07,36317
-3.49,13.04,-2.61,0.96,-1.33,0.51,-39.30,-27.45,-27.74,36351
-0.66,10.19,-5.97,0.47,-0.97,0.25,-40.31,-27.11,-26.76,36385
-0.14,9.00,-7.44,0.85,-0.96,1.59,-40.97,-25.12,-24.42,36419
-3.12,8.17,-4.23,0.81,-1.52,2.06,-41.98,-21.66,-23.08,36454
-4.79,7.65,-3.28,0.60,-1.26,1.72,-42.91,-18.61,-20.39,36488
-7.55,6.12,-6.50,0.44,-1.12,1.13,-43.00,-15.62,-19.26,36522
-0.52,5.47,-7.67,0.68,-1.71,1.16,-42.62,-13.65,-18.05,36556
-4.86,7.41,-7.53,0.47,-0.97,0.67,-41.87,-11.68,-16.47,36590
0.58,3.32,-5.41,-0.06,-0.49,-0.25,-41.93,-11.18,-15.16,36625
-4.76,6.86,-8.37,-0.29,0.42,-0.29,-41.84,-11.39,-16.09,36659
-4.55,7.40,-5.15,-0.53,0.38,-0.88,-41.55,-12.58,-16.94,36693
-3.54,5.84,-8.35,-0.73,0.78,-1.22,-42.09,-13.37,-17.60,36727
-2.32,8.19,-8.04,-0.81,0.98,-1.16,-41.60,-15.04,-18.99,36761
0.98,11.95,-6.62,-1.43,1.74,-1.62,-41.57,-17.25,-22.20,36795
1.55,11.93,-8.97,-3.06,4.18,-3.72,-40.76,-21.06,-27.97,36830
1.93,14.47,0.46,-3.22,4.75,-3.92,-37.62,-26.18,-36.98,36864
8.86,13.69,-8.04,-4.47,7.34,-5.66,-31.80,-29.45,-46.21,36898
12.19,4.42,-15.55,-4.94,8.85,-6.36,-21.54,-30.91,-56.47,36932
12.65,0.28,-24.60,-4.64,9.47,-5.54,-5.88,-28.18,-62.57,36966
-4.95,-7.79,-20.73,-3.23,8.56,-5.39,8.17,-23.46,-62.26,37000
-5.63,-5.91,-16.79,-1.29,5.36,-3.98,17.92,-19.63,-60.20,37035
-5.79,-0.59,-5.89,0.08,2.34,-2.34,21.06,-18.08,-57.86,37069
-8.52,0.08,2.82,-0.06,2.09,-2.26,23.12,-16.53,-56.77,37103
-2.81,0.59,5.90,-0.43,2.63,-1.96,26.41,-14.38,-53.49,37137
-32.34,2.75,-39.16,0.59,5.33,-4.94,30.33,-11.82,-48.87,37171
9.63,7.45,-0.08,1.88,-1.26,-2.09,27.61,-11.66,-51.32,37206
0.14,15.60,-11.50,0.95,0.15,0.05,27.49,-11.50,-50.88,37240
0.66,16.03,-0.25,0.50,-0.18,-0.19,27.77,-12.07,-50.54,37274
2.23,7.98,-5.95,-0.28,0.57,-0.39,27.90,-11.68,-49.77,37308
-3.21,11.24,-3.25,-0.00,0.67,0.63,29.29,-12.22,-49.30,37342
-0.96,4.04,-5.02,-0.27,0.36,0.37,29.38,-13.11,-45.18,37376
-10.13,3.14,-7.38,0.27,0.79,1.15,30.43,-13.59,-47.46,37411
-15.21,4.92,-3.53,-0.27,1.07,0.51,31.42,-14.88,-46.20,37445
-12.30,4.70,-4.24,-0.06,0.93,0.13,31.60,-15.46,-44.99,37479
-4.84,6.25,-3.10,-0.30,1.64,-0.87,32.81,-14.75,-42.56,37513
-0.07,9.55,-4.36,-0.81,3.97,-2.89,34.48,-12.82,-39.01,37547
-4.53,7.33,-8.76,-1.28,4.78,-5.08,35.84,-6.50,-32.04,37582
-2.73,1.68,-10.68,-0.92,2.83,-5.55,34.29,-0.89,-27.51,37616
9.15,11.55,-4.92,-0.21,1.04,-3.03,32.15,4.03,-25.45,37650
-0.24,13.49,-3.88,-0.45,1.82,-2.43,30.87,6.14,-23.25,37684
3.00,11.26,-6.05,-0.86,1.42,-2.64,29.22,7.99,-21.75,37718
1.16,8.10,-7.55,-1.11,1.69,-2.31,27.04,9.89,-17.61,37752
-1.90,9.53,-5.76,-1.42,1.88,-2.68,24.80,11.60,-15.01,37787
-3.09,1.87,-1.94,-1.86,1.84,-3.28,21.85,13.14,-12.22,37821
-8.85,7.18,-6.25,-1.04,1.13,-2.13,18.28,14.37,-9.25,37855
-0.48,4.88,-2.09,-1.06,0.28,-1.80,17.06,14.98,-7.26,37889
-2.42,8.35,-6.52,-0.79,1.14,-0.75,15.51,15.13,-6.43,37923
-9.13,4.96,-4.43,-0.97,-0.11,-0.35,14.44,14.81,-4.43,37958
-7.41,4.02,-8.78,-0.46,-0.62,-0.12,14.38,14.47,-4.25,37992
-9.26,1.02,-4.78,0.34,-1.47,0.07,15.54,14.83,-3.96,38026
-7.58,5.27,-4.11,0.83,-1.57,0.15,17.14,15.38,-5.74,38060
-5.85,1.90,-10.59,0.71,-1.35,0.19,18.50,15.38,-6.78,38094
-5.10,4.57,-12.56,0.65,-0.99,0.87,19.85,16.47,-7.63,38128
-7.35,9.57,-10.34,0.33,-0.30,1.40,21.37,16.03,-8.02,38163
-6.52,20.80,-3.88,-0.99,-0.12,1.66,23.38,14.48,-6.78,38197
6.15,24.98,-14.21,-1.03,-1.01,0.26,25.10,13.42,-7.48,38231
6.15,11.11,-13.42,-2.24,-0.84,-2.70,23.81,14.18,-5.52,38265
-12.38,-13.90,-34.67,-1.99,2.14,-5.36,18.21,16.09,-2.29,38299
9.49,6.95,-0.64,-1.71,3.01,-5.62,10.44,17.51,0.48,38333
17.41,-5.06,-6.24,-3.08,7.11,-5.02,-2.15,16.02,4.18,38368
4.43,-0.38,-3.86,-3.31,8.45,-3.92,-14.10,11.96,3.98,38402
2.97,2.82,-1.72,-3.40,7.70,-2.87,-23.85,7.29,1.56,38436
-9.64,-1.54,-1.94,-2.89,5.82,-1.57,-31.86,3.20,-3.68,38470
24.17,-5.66,7.09,-2.97,-1.30,-0.72,-34.79,0.29,-5.63,38504
8.22,18.69,-38.44,-0.85,5.94,-3.36,-39.46,-3.43,-13.43,38539
-0.16,28.07,15.61,3.31,-5.58,0.36,-39.27,-5.67,-9.66,38573
-25.87,31.03,-19.67,1.32,1.09,0.41,-38.86,-5.95,-9.81,38607
-11.20,24.93,3.84,0.34,-2.41,1.00,-37.53,-3.73,-6.74,38641
-0.10,3.71,-7.69,-0.91,-0.35,-1.15,-38.12,-5.41,-5.66,38675
-2.47,4.92,-7.90,-0.35,-0.69,0.38,-37.43,-5.61,-5.06,38709
-5.05,5.08,-1.62,-0.32,-0.54,0.43,-37.04,-4.38,-4.57,38744
-7.28,1.05,-5.46,-0.04,-0.45,0.15,-36.89,-4.14,-4.37,38778
-7.48,4.81,-6.80,0.11,-0.66,0.00,-36.67,-4.17,-4.03,38812
-4.03,3.49,-8.86,-0.44,-0.56,-0.41,-35.91,-4.30,-3.11,38846
-3.67,4.89,-7.87,-0.86,-0.41,-0.38,-35.81,-5.61,-2.48,38880
-5.10,3.29,-5.84,-1.32,-0.04,-0.75,-35.56,-6.87,-2.50,38915
-5.96,6.01,-4.79,-1.58,0.21,-0.97,-36.13,-9.15,-2.63,38949
-3.53,8.24,-4.95,-1.64,0.31,-1.06,-36.77,-11.66,-3.01,38983
