ax,ay,az,gx,gy,gz,mx,my,mz,timestamp
0.10,-9.75,-1.54,0.10,0.03,-0.10,-5.96,-28.94,25.29,11304
0.28,-9.78,-0.96,0.20,0.07,-0.13,-6.80,-28.59,25.64,11338
0.45,-9.69,-0.90,0.18,0.03,-0.11,-7.59,-27.67,26.09,11373
1.19,-9.60,-1.06,0.05,-0.07,-0.15,-6.71,-28.30,26.31,11407
1.21,-9.24,-1.06,-0.43,0.12,0.03,-6.50,-29.19,25.42,11441
1.15,-9.63,-1.77,-1.03,0.09,0.02,-6.34,-31.18,24.83,11475
-0.51,-8.57,-2.65,-1.07,0.18,-0.30,-6.71,-33.03,23.79,11509
4.50,-10.04,-0.67,-1.15,0.41,-0.03,-6.74,-35.08,22.11,11543
1.82,-9.86,-0.35,-1.47,1.81,0.50,-9.25,-35.74,20.15,11578
3.34,-7.74,-4.14,-3.91,1.12,0.47,-12.26,-39.17,16.21,11612
3.23,-9.21,-3.78,-2.73,2.60,1.28,-16.50,-41.74,11.50,11646
0.27,-7.27,-5.91,-3.03,3.89,2.29,-23.17,-42.74,4.05,11680
-3.13,-10.33,-10.19,-4.78,3.82,3.07,-28.72,-42.18,-5.60,11714
-5.04,-8.62,-8.50,-1.09,3.48,2.66,-33.70,-39.64,-10.95,11749
-4.94,-9.40,-7.51,-0.68,2.13,1.14,-36.50,-37.62,-16.28,11783
-4.51,-7.80,-6.60,-0.20,0.90,0.10,-37.59,-36.80,-17.98,11817
-3.95,-6.57,-6.30,-0.00,0.44,-0.13,-38.28,-36.88,-18.72,11851
-4.25,-6.06,-5.30,-0.07,0.35,0.20,-39.16,-36.73,-19.39,11885
-4.54,-6.36,-6.28,-0.42,0.54,0.68,-40.13,-36.01,-20.93,11919
-5.34,-7.20,-6.71,-0.82,0.56,1.08,-42.27,-34.51,-21.79,11954
-4.60,-6.77,-7.47,-1.01,0.09,0.82,-43.72,-33.19,-22.95,11988
-4.04,-5.60,-7.65,-0.56,-0.22,0.49,-45.60,-32.67,-23.12,12022
-1.22,-4.28,-7.27,-0.11,-0.82,-0.14,-46.81,-33.47,-22.05,12056
0.88,-2.12,-5.22,0.09,-1.31,-0.72,-46.80,-35.57,-20.30,12090
4.27,2.67,-0.15,-0.40,-1.27,-0.92,-48.20,-38.95,-17.44,12125
39.16,7.34,-4.42,-5.31,0.61,-5.02,-48.68,-42.58,-23.24,12159
-3.30,-6.16,-9.25,0.40,3.98,-0.48,-49.94,-41.73,-29.90,12193
-0.50,-12.09,-12.49,-3.25,1.57,0.96,-51.05,-40.00,-36.22,12227
1.18,-4.99,-14.07,-1.28,0.45,1.93,-53.76,-37.52,-37.87,12261
-0.45,-6.32,-11.78,-0.54,-0.18,2.99,-59.18,-30.62,-37.87,12295
0.95,-7.44,-9.72,-0.25,-0.53,3.47,-63.83,-22.83,-35.37,12330
6.84,-6.20,-7.62,-0.53,0.82,3.98,-66.69,-14.59,-35.33,12364
-1.29,-6.56,-4.39,0.33,1.07,3.78,-68.72,-2.16,-35.81,12398
2.40,-5.58,-6.88,0.53,0.92,1.51,-69.69,3.60,-36.33,12432
0.25,-1.74,-8.52,0.41,1.18,0.68,-69.67,8.11,-36.95,12466
0.75,-4.51,-10.35,0.38,0.92,0.84,-70.11,11.81,-37.18,12500
2.16,-3.18,-7.72,0.84,1.17,0.48,-69.76,14.47,-37.85,12535
5.50,-3.96,-8.79,0.46,0.94,0.38,-69.19,17.85,-37.87,12569
6.17,-6.10,-6.50,0.68,1.06,0.31,-68.47,20.51,-38.69,12603
4.14,1.85,-6.52,1.23,1.23,-0.32,-67.86,21.57,-40.73,12637
4.82,-5.22,-7.00,0.63,0.85,-0.22,-67.79,22.27,-42.14,12671
8.01,-3.85,-5.21,1.02,1.33,0.03,-66.60,22.87,-43.64,12706
-2.92,-6.13,-10.74,1.57,1.04,0.82,-64.44,25.81,-46.43,12740
-3.48,-7.42,-12.37,1.33,-0.65,0.91,-63.48,27.46,-45.85,12774
-6.67,-10.55,-26.50,-1.98,-2.12,2.20,-62.61,33.60,-38.60,12808
-2.83,-0.03,-26.83,5.72,-0.09,0.84,-59.63,38.16,-37.50,12842
26.31,39.16,-36.28,1.07,6.43,-2.38,-57.02,34.54,-48.48,12876
1.14,1.43,-9.14,3.98,4.17,-9.11,-63.65,16.71,-52.13,12911
2.06,1.77,-13.63,-0.24,0.53,-6.67,-67.61,2.50,-49.33,12945
8.99,3.68,-2.34,0.19,-0.35,-2.70,-68.58,-6.14,-43.82,12979
8.38,3.28,3.34,1.53,-1.05,0.64,-68.65,-8.20,-35.24,13013
7.48,-0.64,4.62,1.47,-1.88,1.10,-68.30,-6.69,-26.86,13047
1.54,-3.35,1.16,0.22,-2.88,0.43,-66.50,-6.20,-12.99,13082
6.95,-3.38,-1.81,0.31,-3.82,-4.10,-62.85,-13.40,-2.37,13116
6.66,-1.16,-3.94,0.78,-3.47,-3.83,-56.02,-20.61,8.16,13150
7.25,2.77,-5.71,0.60,-3.29,-3.69,-45.41,-27.16,18.39,13184
6.78,2.09,-6.99,0.59,-2.89,-2.00,-36.52,-28.53,22.77,13218
3.77,0.04,-9.91,0.40,-2.46,0.44,-30.14,-27.45,25.48,13252
0.39,-3.84,-9.58,0.16,-2.39,0.66,-23.25,-24.66,26.67,13287
1.09,-4.50,-9.89,-0.29,-2.70,-0.88,-16.18,-23.98,27.27,13321
6.90,-2.40,-10.62,-0.52,-3.02,-2.14,-5.48,-23.37,26.44,13355
11.38,2.55,-5.05,-0.78,-2.20,-0.35,1.62,-22.03,24.06,13389
28.62,-6.50,-14.26,0.00,1.09,0.01,5.38,-21.10,20.81,13423
-0.87,-3.80,-11.07,-0.83,0.96,0.68,5.35,-20.56,17.79,13458
5.66,-2.12,-11.07,-0.71,0.47,-0.08,5.74,-19.64,15.26,13492
3.00,-1.78,-10.31,-0.68,0.54,-0.34,6.40,-18.71,12.89,13526
1.64,1.20,-10.18,-0.14,0.60,-0.28,7.41,-17.66,10.89,13560
1.37,-0.24,-11.22,-0.16,0.24,-0.06,8.35,-17.19,10.29,13594
2.46,-4.23,-8.07,-0.49,-0.35,0.19,10.74,-17.26,7.75,13628
5.22,-3.76,-8.77,-0.38,-0.88,0.24,13.68,-17.42,6.49,13663
2.86,-5.54,-10.57,-0.20,-1.04,1.39,15.38,-18.39,4.66,13697
5.38,-7.49,-7.53,-0.19,-0.55,2.34,16.91,-20.08,3.84,13731
3.80,-5.71,-6.99,-0.13,0.36,2.02,16.37,-21.81,2.54,13765
-0.74,-4.09,-9.93,0.25,0.74,2.34,16.43,-24.00,3.83,13799
-2.35,-3.55,-10.82,0.52,0.72,0.86,16.18,-24.90,5.66,13833
-7.21,-5.09,-12.27,0.88,0.39,0.04,16.27,-24.52,6.37,13868
-4.84,-2.95,-12.91,0.98,-0.10,-0.39,18.82,-22.90,7.76,13902
-10.51,0.36,-11.65,1.52,-1.09,-1.39,21.57,-19.58,8.87,13936
-10.80,3.12,-14.52,1.91,-2.20,-2.54,26.40,-13.05,3.79,13970
-4.94,16.79,-12.69,2.19,-3.19,-4.64,32.13,-3.70,-0.41,14004
-7.14,20.41,-18.89,0.07,-3.62,-7.69,31.88,5.52,-8.87,14039
0.68,18.32,-11.39,-0.85,-2.16,-6.62,26.70,13.50,-18.04,14073
10.71,17.09,-14.05,-0.96,-0.75,-4.40,23.43,16.91,-23.47,14107
8.36,-2.21,-12.08,-1.56,-0.11,-0.25,21.91,17.03,-28.30,14141
14.58,-1.41,-8.10,-2.05,0.67,-2.09,20.40,17.30,-31.73,14175
15.59,3.51,-6.61,-1.72,0.22,0.28,20.26,17.90,-34.86,14209
7.26,-3.69,-7.03,-2.35,0.19,0.87,20.72,18.11,-37.56,14244
0.51,-10.80,-11.94,-2.53,-1.29,3.55,21.97,16.62,-39.71,14278
-3.77,-7.25,-14.17,-1.06,-2.64,5.90,23.47,14.22,-44.72,14312
-11.03,-2.87,-18.13,-0.79,-2.42,7.83,24.06,8.17,-51.96,14346
-3.16,-17.59,-8.72,-0.25,-0.36,10.27,24.77,2.16,-56.28,14380
5.96,-16.98,-10.27,0.72,0.87,3.35,23.57,0.22,-63.48,14415
-3.69,-9.79,-11.08,1.32,0.91,3.91,22.55,-1.90,-62.82,14449
15.33,-4.13,-9.20,2.05,-0.09,-1.45,18.39,-1.56,-64.75,14483
9.25,22.79,-5.19,3.55,-0.03,-2.73,13.80,-2.19,-65.57,14517
5.44,7.97,-4.31,1.69,0.41,-2.37,9.66,-1.02,-65.77,14551
2.38,3.34,-11.04,0.68,0.47,-3.03,6.77,0.73,-67.35,14585
-1.95,-1.16,-11.19,0.66,0.04,-3.31,1.11,1.18,-69.25,14620
-7.85,-2.21,-13.29,1.15,-0.69,-3.24,-5.07,-0.28,-70.14,14654
-9.10,3.01,-11.11,1.13,-1.77,-3.14,-12.60,-4.24,-71.08,14688
-8.88,8.30,-10.30,0.54,-2.27,-4.08,-23.91,-8.99,-69.26,14722
-3.99,13.04,-9.83,-0.10,-1.53,-3.68,-30.87,-14.35,-65.24,14756
0.40,5.37,-9.22,-1.19,-0.64,-2.83,-34.35,-21.12,-61.01,14791
5.23,4.02,-8.77,-0.61,-0.03,-1.77,-35.22,-25.58,-59.08,14825
1.50,-2.06,-10.39,-0.88,-0.21,1.40,-35.69,-26.70,-57.64,14859
1.31,-11.57,-10.75,-1.18,-0.74,2.37,-37.90,-25.18,-52.91,14893
3.38,-9.20,-9.81,-0.53,-1.16,4.14,-40.44,-21.66,-48.64,14927
6.73,-10.16,-12.45,-0.88,-0.89,7.77,-43.53,-11.87,-44.11,14961
5.06,-17.47,-12.31,-0.87,0.30,10.18,-42.82,1.80,-41.51,14996
0.52,-11.71,-11.92,0.71,1.34,4.79,-38.86,10.23,-40.51,15030
2.91,-4.78,-9.96,1.62,1.46,2.94,-36.42,14.86,-40.94,15064
1.70,-0.54,-12.28,1.76,1.01,-0.33,-35.66,15.29,-43.13,15098
-1.76,6.28,-10.41,2.49,1.18,-1.80,-36.06,13.17,-43.92,15132
-8.75,3.30,-11.90,2.30,0.38,-2.21,-38.66,9.41,-45.09,15166
-12.97,-0.57,-11.31,2.58,-0.63,-3.23,-40.75,4.53,-44.31,15201
-13.13,1.54,-12.71,2.85,-2.24,-4.21,-45.00,-3.93,-39.37,15235
-7.51,9.37,-16.16,2.78,-3.68,-5.19,-48.63,-13.23,-33.08,15269
-10.81,27.19,-18.47,1.16,-4.55,-10.51,-47.72,-28.82,-21.84,15303
-0.63,24.07,-12.52,-0.26,-2.60,-5.91,-37.08,-45.78,-9.59,15337
5.15,15.78,-10.31,-1.17,-0.56,-3.40,-27.86,-51.80,-4.98,15372
-2.26,-2.34,-10.87,-1.73,-1.10,-0.76,-18.21,-55.73,-2.16,15406
-1.47,-4.91,-7.11,-0.67,-1.29,-0.62,-9.31,-57.47,-2.43,15440
1.37,-3.41,-9.84,-0.61,-2.17,1.60,-3.07,-57.64,-3.46,15474
5.13,-10.92,-7.91,-1.05,-1.82,5.79,-3.95,-57.45,-7.97,15508
8.54,-15.58,-8.29,-0.95,-0.01,8.51,-12.01,-54.71,-13.10,15542
-4.76,-14.18,-15.61,-0.84,0.54,7.99,-23.60,-47.84,-16.19,15577
6.37,-13.76,-13.02,0.07,0.87,7.00,-29.42,-40.87,-17.87,15611
4.86,-10.65,-13.52,0.62,0.81,6.11,-34.36,-32.61,-18.69,15645
3.89,-2.64,-10.96,1.18,0.63,1.90,-35.24,-28.46,-18.80,15679
5.46,-1.70,-5.42,1.70,0.11,-0.84,-34.95,-27.29,-17.98,15713
2.51,1.74,-6.83,2.03,0.53,-3.07,-33.25,-30.33,-15.92,15748
-8.93,9.71,-10.20,2.16,0.68,-3.82,-29.60,-34.03,-15.40,15782
-9.83,3.97,-10.89,1.66,-0.10,-5.29,-26.28,-36.98,-14.62,15816
-12.53,2.60,-13.90,1.51,-1.01,-5.86,-20.18,-40.78,-11.94,15850
-12.99,10.47,-12.92,1.18,-1.76,-5.27,-14.29,-43.66,-9.88,15884
-3.43,15.82,-12.26,0.22,-1.51,-5.32,-7.34,-45.89,-9.53,15918
0.20,9.59,-11.28,-0.66,-0.99,-3.61,-1.29,-47.43,-9.46,15953
2.72,-0.25,-6.55,-0.82,-0.92,-1.28,2.65,-47.94,-10.19,15987
5.49,-5.36,-6.91,-1.68,-1.27,-0.70,4.57,-48.20,-12.29,16021
7.35,-6.13,-9.55,-1.50,-1.35,1.91,4.34,-48.44,-14.06,16055
8.05,-6.23,-5.55,-0.88,-1.11,5.01,0.31,-47.56,-14.79,16089
12.65,-6.76,-11.45,-1.14,-0.86,6.89,-6.88,-45.41,-16.03,16124
9.84,-8.16,-9.64,-0.65,0.11,8.59,-15.00,-40.59,-16.41,16158
3.65,-16.53,-12.04,0.19,0.16,5.83,-19.67,-35.08,-14.78,16192
3.89,-9.79,-10.91,0.26,0.55,3.74,-20.64,-30.68,-14.12,16226
-3.10,-3.41,-9.72,1.33,0.97,1.83,-19.56,-27.76,-14.10,16260
-1.51,-3.75,-7.35,1.66,0.84,-0.49,-15.70,-27.80,-14.92,16294
-13.73,2.37,-6.75,2.56,0.58,-3.03,-11.58,-27.95,-15.52,16329
-13.64,2.53,-9.36,2.20,-0.66,-3.08,-6.28,-28.15,-17.16,16363
-9.08,12.85,-9.07,3.10,-1.33,-4.80,-0.07,-27.92,-20.33,16397
-14.56,30.38,-12.09,3.49,-3.14,-7.48,4.47,-27.81,-24.70,16431
-1.11,27.35,-16.35,0.70,-2.76,-7.59,6.74,-28.00,-31.72,16465
4.57,19.06,-11.94,-1.13,-1.75,-5.55,7.41,-29.28,-36.01,16500
7.28,4.71,-10.15,-0.30,-0.95,0.36,4.90,-30.75,-40.32,16534
8.05,-13.18,-11.12,-2.61,-0.60,2.40,0.73,-31.12,-43.76,16568
-0.61,-12.46,-5.99,-0.95,-1.45,4.94,-6.12,-31.53,-45.53,16602
9.49,-14.05,-9.55,-1.15,-1.50,7.22,-14.06,-29.30,-45.37,16636
6.21,-19.86,-12.95,-0.77,-0.13,11.30,-24.77,-21.84,-43.66,16670
-1.79,-21.46,-14.97,-0.41,0.34,6.67,-29.49,-15.35,-40.06,16705
6.50,-1.30,-12.35,0.96,0.43,3.29,-31.95,-10.89,-35.65,16739
4.47,5.43,-14.01,1.35,0.83,2.38,-31.88,-9.50,-32.71,16773
-1.85,-0.37,-9.13,1.38,0.89,1.78,-30.71,-8.14,-30.09,16807
-0.45,-8.48,-8.76,1.59,0.79,-0.10,-28.62,-7.73,-25.59,16841
-6.31,2.02,-11.64,1.95,0.34,-2.81,-26.45,-9.78,-23.38,16875
-8.19,10.32,-12.03,2.26,0.25,-3.91,-23.84,-13.29,-19.18,16910
-12.12,12.16,-13.02,2.23,0.11,-4.91,-18.28,-15.19,-17.39,16944
-16.95,17.08,-14.17,2.19,-1.00,-5.68,-12.79,-17.44,-16.87,16978
-4.54,13.08,-11.86,0.96,-1.95,-6.42,-7.10,-19.51,-17.77,17012
-0.58,7.68,-13.05,0.65,-1.67,-5.96,-3.43,-20.96,-21.38,17046
5.02,18.09,-13.37,-0.01,-1.38,-5.42,-0.22,-23.69,-24.48,17081
3.85,8.89,-11.23,-0.29,-1.68,-2.04,1.71,-26.00,-27.78,17115
9.26,9.38,-6.96,-0.39,-1.30,-1.33,2.67,-27.84,-31.16,17149
9.53,-1.65,-7.49,-1.40,-0.91,3.36,0.80,-28.72,-35.36,17183
4.42,-17.57,-7.70,-1.29,-0.41,6.59,-4.36,-28.46,-38.56,17217
8.69,-16.32,-8.60,-1.14,-0.38,6.33,-9.32,-26.50,-41.33,17251
8.18,-12.46,-11.04,-0.33,-0.07,7.15,-16.11,-22.01,-41.74,17286
6.72,-14.16,-13.20,-0.03,0.39,6.85,-19.48,-16.92,-41.68,17320
3.99,-4.24,-13.95,0.21,1.78,3.11,-20.23,-11.72,-41.92,17354
-2.75,3.57,-16.17,1.45,0.83,0.70,-20.62,-10.49,-40.85,17388
-8.11,-4.19,-12.60,1.95,0.64,-0.15,-20.62,-10.10,-40.98,17422
-14.11,2.66,-11.92,2.47,-0.57,-3.52,-21.65,-12.07,-39.93,17457
-10.92,13.35,-12.96,2.27,-1.76,-5.53,-22.16,-16.24,-37.74,17491
-11.16,25.56,-14.24,2.26,-2.36,-8.03,-20.70,-21.91,-30.33,17525
-0.47,21.89,-17.02,-0.45,-2.08,-9.14,-15.76,-29.86,-31.76,17559
2.39,9.19,-11.71,-1.72,-1.42,-4.99,-11.24,-32.96,-32.42,17593
2.72,5.01,-10.21,-0.62,-1.45,-2.06,-8.61,-34.13,-33.00,17627
5.91,-2.00,-7.49,-0.73,-1.81,-0.08,-8.46,-33.95,-33.79,17662
10.14,-6.52,-4.30,-0.61,-1.86,2.97,-9.82,-31.95,-34.35,17696
16.72,-8.13,-8.11,-1.26,-0.59,7.11,-14.76,-27.01,-35.22,17730
1.12,-12.40,-13.15,-0.80,1.67,8.32,-17.95,-21.57,-35.60,17764
2.86,-6.72,-11.08,-0.67,0.92,5.04,-17.85,-16.97,-36.31,17798
-1.73,-6.31,-15.61,-0.51,0.26,5.93,-17.32,-13.88,-35.82,17833
-2.13,-8.50,-8.78,0.76,0.73,4.47,-15.86,-12.29,-36.14,17867
-2.00,-6.41,-5.80,1.46,1.21,2.26,-14.24,-11.53,-35.47,17901
-2.68,-0.54,-8.87,1.89,0.33,-0.02,-12.73,-13.53,-34.79,17935
-5.07,0.81,-9.15,1.43,-0.10,-0.93,-12.04,-15.95,-33.34,17969
-7.97,5.21,-10.11,2.13,-0.44,-2.24,-10.16,-19.16,-31.37,18003
-9.48,10.92,-11.52,2.26,-1.01,-3.97,-7.92,-22.01,-30.43,18038
-6.40,14.92,-12.34,2.13,-1.66,-6.09,-1.87,-26.07,-29.25,18072
0.72,20.69,-14.66,0.76,-1.89,-9.08,5.76,-27.64,-31.28,18106
-1.22,18.26,-10.04,0.31,-1.18,-5.36,12.41,-27.04,-34.58,18140
4.15,10.56,-12.03,-0.25,-0.90,-3.91,17.85,-25.69,-40.09,18174
3.37,2.74,-10.50,-1.28,-1.00,-2.33,20.65,-23.93,-46.17,18208
0.77,-0.60,-9.62,-1.23,-0.79,0.25,22.11,-22.84,-53.80,18243
0.64,-7.84,-9.19,-1.88,-1.50,1.81,20.72,-22.68,-59.65,18277
5.06,-10.08,-8.07,-1.35,-1.45,3.22,17.66,-22.90,-66.40,18311
7.64,-7.33,-8.30,-0.53,-1.05,5.03,12.16,-24.26,-73.12,18345
5.98,-6.69,-10.72,-0.85,-0.65,6.96,6.68,-24.88,-78.56,18379
10.21,-10.14,-12.93,-0.39,0.33,7.05,1.94,-24.16,-81.31,18414
11.94,-9.53,-18.30,-0.11,1.48,4.85,-1.51,-24.20,-83.79,18448
1.34,-5.44,-9.90,1.45,1.12,3.07,-1.45,-26.60,-84.62,18482
-0.38,-1.07,-10.09,1.63,0.93,1.35,-1.81,-29.04,-83.00,18516
-8.26,0.67,-10.27,1.72,0.68,0.34,-3.03,-31.26,-83.27,18550
-7.52,-1.65,-8.00,1.92,-0.25,-1.00,-5.13,-33.19,-84.04,18584
-8.27,10.20,-8.99,2.06,-0.91,-3.18,-7.99,-36.55,-84.27,18619
-8.23,16.75,-14.44,2.84,-2.38,-6.25,-11.34,-42.02,-83.95,18653
-2.85,22.07,-15.13,1.24,-2.25,-9.22,-12.32,-51.13,-84.48,18687
1.29,17.53,-13.52,0.54,-1.78,-6.35,-13.21,-60.00,-84.77,18721
6.69,9.79,-13.16,-0.59,-0.17,-2.69,-13.27,-66.12,-86.83,18755
1.42,1.52,-10.97,-1.33,-0.72,-1.73,-16.98,-71.48,-88.98,18790
5.57,-0.81,-8.38,-1.17,-0.61,-1.31,-21.06,-75.42,-88.73,18824
5.12,-1.23,-9.25,-1.52,-0.67,-0.28,-26.35,-77.84,-86.23,18858
3.15,-0.58,-8.06,-1.31,-0.49,0.62,-33.31,-79.03,-84.00,18892
3.25,-1.74,-9.80,-1.39,-0.72,1.19,-39.58,-77.71,-80.08,18926
-2.06,-3.55,-8.09,-1.53,-0.51,1.90,-47.75,-73.81,-75.36,18960
3.21,-2.48,-6.73,-1.44,-0.61,2.67,-54.25,-68.52,-71.19,18995
-0.93,-0.57,-5.22,-1.51,-0.01,3.39,-61.39,-59.94,-68.47,19029
3.35,-9.86,-16.22,-1.68,-1.06,4.62,-71.16,-45.00,-62.76,19063
1.55,-6.74,-14.13,-1.35,-1.42,4.40,-77.13,-32.67,-57.19,19097
6.89,-9.42,-13.13,-0.73,-1.88,4.81,-83.13,-17.90,-48.16,19131
6.66,-8.44,-14.39,0.29,-1.51,4.41,-85.19,-5.38,-39.10,19166
0.82,-5.53,-13.98,1.10,-1.22,4.49,-85.03,7.56,-31.04,19200
4.37,-2.04,-11.61,1.63,-0.32,3.70,-81.89,20.68,-24.38,19234
-0.07,0.75,-10.94,1.83,0.14,2.75,-77.78,29.80,-22.07,19268
-0.35,-4.12,-10.75,1.93,0.32,2.05,-73.59,40.60,-20.29,19302
-7.76,1.68,-7.04,3.00,0.62,-0.17,-70.78,39.97,-20.96,19336
-2.88,0.48,-8.12,2.61,0.04,-1.32,-70.26,38.69,-21.02,19371
-5.25,2.12,-7.47,2.64,0.08,-2.07,-70.71,35.24,-20.99,19405
0.34,5.48,-8.87,2.59,-0.28,-2.49,-70.43,31.47,-20.29,19439
-4.81,-0.41,-12.25,1.74,-0.52,-3.15,-69.58,26.26,-17.68,19473
-11.02,0.30,-10.10,2.11,-0.78,-3.89,-68.82,18.18,-15.89,19507
-5.35,3.37,-15.41,1.73,-0.91,-4.20,-68.06,9.65,-14.03,19541
-7.12,6.03,-13.17,1.89,-1.47,-4.36,-65.54,-1.33,-10.60,19576
-11.30,3.80,-15.32,1.17,-1.14,-3.36,-61.71,-8.65,-6.46,19610
1.04,4.30,-13.79,0.96,-1.03,-2.37,-55.88,-13.18,-1.15,19644
-2.04,-0.47,-13.26,0.83,-1.17,-1.85,-46.80,-17.07,2.70,19678
0.18,1.58,-14.39,1.03,-1.30,-2.42,-38.67,-20.23,3.95,19712
0.71,4.93,-10.89,1.85,-1.74,-2.36,-26.83,-25.20,3.39,19747
7.54,5.30,-13.39,1.12,-1.37,-2.84,-22.30,-28.98,2.70,19781
4.94,3.42,-12.15,0.74,-1.06,-2.20,-16.75,-33.37,1.33,19815
0.64,1.40,-9.31,0.50,-0.55,-1.50,-11.20,-37.55,-0.76,19849
-3.80,-0.86,-9.20,0.21,-0.37,-0.78,-8.80,-40.76,-3.11,19883
-4.08,-3.25,-10.07,0.43,-0.60,-0.78,-6.23,-43.95,-4.74,19917
-1.33,-2.51,-10.69,0.54,-0.88,-1.50,-2.56,-48.83,-6.78,19952
-5.17,-0.75,-9.15,0.69,-1.04,-1.95,1.18,-52.75,-7.47,19986
-5.18,0.63,-9.47,0.72,-0.97,-2.29,5.51,-56.07,-8.90,20020
3.88,1.82,-13.69,0.19,-0.79,-2.08,9.03,-58.21,-9.12,20054
-2.23,1.18,-12.23,0.41,-0.48,-1.58,11.15,-59.25,-10.16,20088
-3.03,-3.48,-11.05,0.53,-0.63,-1.84,14.83,-60.30,-9.81,20123
-3.76,-5.71,-13.06,0.93,-1.35,-2.98,18.94,-58.73,-10.07,20157
-1.74,0.49,-13.48,1.14,-1.61,-3.38,25.86,-56.61,-11.55,20191
0.78,7.20,-12.03,0.99,-1.50,-3.21,29.86,-53.74,-15.13,20225
1.62,8.07,-14.18,0.83,-1.38,-2.80,31.45,-51.49,-18.78,20259
2.86,4.21,-13.17,0.56,-1.10,-1.64,30.93,-49.78,-22.77,20293
3.59,1.41,-13.68,0.23,-1.25,-1.30,28.21,-49.61,-25.77,20328
0.22,0.21,-8.82,0.65,-1.43,-1.80,27.01,-48.86,-26.67,20362
6.45,2.56,-13.68,0.82,-1.17,-2.56,26.67,-47.31,-26.83,20396
-3.04,-0.50,-8.16,0.59,-1.26,-2.76,27.13,-46.49,-28.28,20430
1.37,1.38,-10.46,-0.10,-0.97,-1.99,28.33,-45.85,-28.22,20464
3.78,3.73,-10.31,-0.25,-0.60,-1.21,28.28,-46.17,-28.72,20499
2.57,-3.24,-10.57,-0.23,-0.77,-0.43,27.99,-47.84,-29.28,20533
4.94,-0.41,-8.85,-0.10,-0.64,-0.52,27.92,-48.85,-29.61,20567
0.39,-1.72,-10.05,-0.12,-0.58,-0.51,28.05,-50.58,-30.21,20601
-0.21,-3.26,-10.92,-0.03,-0.48,-0.62,28.27,-53.20,-29.86,20635
3.12,-1.27,-8.37,0.36,-0.10,-1.23,29.41,-54.68,-29.68,20669
3.28,1.81,-9.19,0.31,-0.04,-1.41,31.80,-56.97,-30.14,20704
-0.82,-2.34,-12.27,0.25,-0.68,-1.69,34.08,-59.24,-30.27,20738
-0.02,-0.48,-11.22,0.84,-1.09,-2.38,38.40,-60.16,-29.47,20772
-3.02,4.78,-12.20,0.57,-1.89,-3.33,43.22,-60.26,-31.29,20806
-7.12,4.56,-10.40,0.42,-1.82,-4.08,50.99,-58.37,-35.30,20840
-2.81,5.45,-12.37,0.38,-1.34,-3.94,57.75,-54.56,-39.27,20875
1.79,6.48,-10.74,0.28,-0.70,-2.33,62.10,-52.65,-42.91,20909
4.19,2.14,-8.13,-0.13,-0.39,-0.43,62.31,-53.22,-44.34,20943
7.57,-2.53,-8.67,-0.23,0.24,0.72,61.34,-55.85,-46.11,20977
5.06,-4.09,-8.15,0.02,0.69,0.89,58.77,-59.76,-44.40,21011
5.35,-5.67,-8.39,0.14,0.64,0.71,57.21,-63.07,-43.04,21045
3.81,-3.54,-8.54,0.61,0.21,-0.37,56.09,-65.00,-39.36,21080
6.69,-1.97,-8.54,0.24,-0.26,-0.97,56.61,-65.01,-38.10,21114
7.48,1.69,-8.98,0.36,-0.41,-1.13,56.84,-64.59,-35.75,21148
6.16,1.29,-9.09,0.06,-0.32,-0.69,57.59,-63.86,-33.57,21182
-0.47,0.20,-10.94,0.09,-0.13,-0.30,57.66,-63.53,-31.42,21216
-2.09,-2.06,-12.19,0.01,-0.60,-0.20,57.80,-63.05,-30.17,21250
-2.77,-0.20,-11.33,-0.04,-1.04,-0.66,58.37,-61.28,-30.42,21285
-2.75,5.16,-11.45,0.47,-1.42,-1.39,59.95,-58.13,-29.95,21319
-4.74,4.27,-8.92,0.41,-1.84,-3.32,64.76,-49.25,-32.26,21353
-0.02,2.51,-10.41,-0.45,-1.21,-5.80,70.51,-35.22,-35.57,21387
-2.75,1.48,-8.79,-0.11,-0.12,-3.71,73.72,-21.86,-36.09,21421
-4.47,-0.56,-10.40,0.04,0.43,-1.76,74.98,-11.96,-36.13,21456
-3.70,-0.19,-10.22,0.50,0.19,-1.60,75.05,-4.15,-36.47,21490
0.50,-0.05,-10.82,0.24,-0.21,-1.34,73.95,4.12,-38.56,21524
-3.01,0.98,-9.67,-0.22,-0.46,-0.34,73.71,9.43,-42.93,21558
2.71,-6.11,-9.24,-0.79,-0.81,0.97,72.01,11.66,-46.13,21592
5.11,-4.12,-8.65,0.07,-0.29,1.15,71.89,11.74,-51.01,21626
8.14,1.17,-8.40,0.12,-0.09,0.55,71.24,12.28,-53.49,21661
13.37,-0.76,-7.84,0.23,0.43,-0.02,69.96,13.12,-54.31,21695
4.24,0.70,-8.98,0.67,0.92,0.03,70.30,13.14,-53.95,21729
-1.55,0.18,-10.41,0.21,0.33,0.04,69.98,14.05,-54.19,21763
-4.51,-0.23,-10.54,0.20,-0.10,-0.55,68.61,15.45,-54.33,21797
-2.90,-2.08,-10.54,0.22,-0.55,-1.19,65.68,18.05,-55.67,21832
0.48,-1.75,-10.56,0.50,-0.71,-2.05,60.83,22.76,-57.75,21866
0.40,0.85,-10.01,0.59,-0.96,-2.81,55.88,28.02,-59.19,21900
2.94,5.20,-9.10,0.42,-0.89,-3.35,49.50,34.45,-60.61,21934
8.17,6.32,-9.18,0.17,-0.14,-1.44,44.81,38.75,-60.33,21968
3.71,3.32,-7.40,-0.26,0.77,0.93,46.23,38.70,-58.40,22002
7.40,-4.99,-9.22,-1.04,0.47,0.81,47.87,40.41,-54.53,22037
3.54,-4.80,-8.07,-0.43,0.98,1.16,51.27,40.32,-50.58,22071
6.37,-0.70,-9.49,-0.02,0.76,0.61,53.90,40.00,-48.92,22105
3.20,-1.85,-9.07,0.02,0.79,0.78,57.09,38.70,-46.61,22139
2.72,-0.92,-10.22,0.10,0.41,0.46,59.15,38.57,-46.43,22173
-0.45,-1.33,-9.98,0.17,-0.28,0.37,60.20,38.48,-45.98,22208
-3.38,0.64,-12.51,0.30,-1.47,0.55,61.22,37.28,-49.90,22242
-2.60,-0.86,-12.16,0.91,-2.34,-0.76,59.60,37.43,-56.04,22276
-3.92,-1.32,-10.94,1.30,-2.82,-3.45,51.53,41.95,-65.01,22310
-14.72,10.13,-7.21,-0.31,-1.87,-8.90,34.45,54.15,-68.84,22344
-6.70,7.53,-5.88,-0.71,-0.97,-6.94,14.66,62.92,-69.19,22378
6.81,-2.25,-13.41,-0.14,1.23,-2.06,3.10,66.98,-68.74,22413
-10.67,4.37,-9.23,0.46,1.12,-1.35,2.32,66.94,-72.20,22447
2.36,-2.04,-10.06,-0.28,-0.33,-1.49,-3.76,67.49,-72.74,22481
0.36,3.32,-9.35,0.71,0.32,-2.72,-11.78,67.13,-76.07,22515
4.03,5.41,-12.03,0.00,-1.18,-2.30,-21.69,65.42,-77.27,22549
1.65,-0.14,-8.40,-0.16,-0.98,-0.70,-30.01,64.57,-75.26,22583
3.19,3.64,-9.38,0.38,-0.82,-0.30,-36.54,62.69,-74.99,22618
-0.46,-1.47,-8.45,0.10,-1.18,1.31,-38.92,63.46,-71.50,22652
-1.42,-1.69,-8.24,0.28,-1.42,2.99,-37.59,67.68,-66.37,22686
1.47,-1.22,-8.77,0.02,-1.49,3.43,-32.93,70.68,-62.39,22720
4.02,0.41,-7.31,0.24,-0.38,2.32,-26.91,73.88,-57.88,22754
8.91,-1.68,-8.99,-0.25,0.34,0.18,-23.87,75.12,-56.07,22789
11.29,1.67,-10.31,-0.73,0.97,-1.59,-25.65,74.79,-53.48,22823
8.01,7.87,-5.39,-0.23,1.37,-2.87,-31.12,73.21,-52.00,22857
2.80,-5.85,-11.15,-0.90,0.54,-0.76,-32.29,72.99,-50.01,22891
-1.47,-7.15,-9.41,-0.56,-0.15,-0.65,-33.06,73.72,-47.35,22925
-0.65,-1.89,-12.24,-0.76,-1.42,-0.13,-35.38,73.57,-42.91,22959
1.76,2.95,-9.54,-0.27,-1.19,0.24,-35.36,74.32,-39.51,22994
0.26,2.22,-8.71,-0.64,-0.65,0.92,-32.26,75.43,-35.74,23028
-3.56,-1.61,-9.01,-0.75,-0.39,1.71,-27.83,77.48,-31.76,23062
-5.04,-2.17,-10.00,-0.77,-0.67,2.51,-20.55,79.07,-27.96,23096
-7.63,-3.28,-13.94,-1.05,-1.55,4.09,-7.53,81.13,-23.68,23130
-9.13,-2.21,-9.71,-0.42,-1.24,5.05,7.76,80.05,-20.62,23165
-4.83,-5.16,-10.64,-0.44,-1.53,5.46,28.14,74.61,-20.08,23199
1.74,-8.03,-13.34,-0.42,-1.71,6.76,46.83,64.43,-21.37,23233
3.38,-0.84,-6.16,-0.60,-0.57,8.17,64.18,49.93,-23.09,23267
-6.31,-10.92,-24.49,-0.92,-0.87,7.67,80.43,26.24,-27.19,23301
3.09,-14.24,-16.28,-0.13,-0.90,4.57,85.36,13.86,-31.13,23335
5.72,-9.98,-7.58,0.38,-0.84,2.13,86.98,8.92,-36.66,23370
4.95,-4.90,-10.75,0.95,-1.46,1.72,88.10,5.10,-44.18,23404
-5.60,2.07,-12.30,0.46,-1.56,1.70,87.50,2.35,-52.44,23438
-4.26,5.30,-6.34,0.67,-1.29,1.30,85.59,-1.15,-61.52,23472
2.42,2.04,-5.94,0.27,-1.42,3.45,83.09,-6.49,-71.08,23506
7.01,-5.15,-10.89,-0.40,-0.88,5.57,79.30,-16.37,-78.53,23541
-0.39,-19.87,-26.64,0.89,-0.90,5.24,73.97,-27.74,-83.47,23575
-1.73,4.84,-17.10,-0.07,0.01,2.92,74.47,-29.07,-84.32,23609
6.04,-3.43,-12.87,0.84,0.28,1.91,72.26,-33.00,-85.98,23643
4.38,-8.73,-10.03,0.60,0.19,1.02,70.39,-35.68,-86.61,23677
1.96,4.63,-8.85,1.31,0.85,-0.85,71.66,-35.40,-84.55,23711
-3.14,7.00,-6.30,1.43,1.06,-1.13,74.35,-34.76,-82.56,23746
0.81,-3.18,-10.58,1.28,0.71,-0.88,74.86,-33.67,-82.10,23780
-4.45,0.52,-9.95,1.95,0.98,-2.10,77.02,-30.94,-79.61,23814
-4.02,2.87,-13.53,1.54,0.36,-1.68,77.43,-28.31,-78.76,23848
-4.51,-0.00,-11.13,1.78,0.23,-2.21,76.75,-24.58,-80.15,23882
-5.89,0.76,-11.49,1.65,-0.55,-2.06,73.75,-21.10,-83.97,23916
-4.29,3.76,-12.21,1.78,-1.08,-3.76,69.00,-16.03,-88.69,23951
-3.71,4.17,-12.12,1.81,-2.03,-4.81,59.43,-9.95,-94.91,23985
-7.56,9.72,-11.01,1.74,-2.75,-6.63,47.66,-3.38,-100.39,24019
-5.92,17.54,-12.32,0.57,-2.70,-10.83,31.85,6.62,-103.79,24053
-1.68,10.38,-9.05,0.32,-1.17,-5.70,17.09,11.08,-102.75,24087
-0.14,7.51,-9.92,0.14,-0.07,-4.42,10.25,11.33,-101.13,24122
-1.55,9.74,-10.69,0.38,0.52,-2.18,6.52,9.94,-98.83,24156
1.61,-0.85,-10.77,-0.21,-0.10,-2.11,2.62,8.49,-95.89,24190
-6.06,-4.86,-6.48,0.35,0.38,-2.92,-0.09,7.04,-92.20,24224
2.90,6.29,-9.45,0.27,-0.19,-1.78,-4.81,4.25,-87.84,24258
-0.28,0.03,-6.51,-0.40,-0.19,-1.42,-7.78,3.52,-83.85,24292
2.35,3.93,-12.33,-0.69,-0.70,-0.56,-10.49,2.41,-79.54,24327
3.73,0.17,-7.95,-0.43,-0.79,0.62,-11.96,2.53,-75.14,24361
7.47,1.21,-7.80,-0.86,-0.69,1.01,-13.53,2.89,-71.29,24395
9.17,-1.22,-9.75,-1.22,-0.89,2.03,-14.32,4.28,-67.77,24429
8.04,-4.47,-7.82,-1.13,-1.14,2.60,-14.32,5.98,-64.25,24463
8.16,-3.04,-7.04,-1.10,-1.13,3.05,-15.04,8.23,-61.36,24498
5.61,-3.43,-8.00,-1.52,-1.35,3.78,-15.26,11.18,-56.94,24532
-2.65,-1.76,-9.82,-1.05,-2.39,5.86,-14.44,14.34,-53.01,24566
-2.10,-5.53,-12.90,-0.89,-3.30,6.07,-13.58,17.77,-47.88,24600
5.02,-5.37,-19.45,-0.48,-4.07,8.03,-11.12,20.20,-44.77,24634
-0.42,-9.05,-13.47,0.32,-2.95,9.34,-4.76,22.11,-42.63,24668
5.45,-3.44,-14.70,1.27,-1.59,6.03,2.15,21.60,-42.66,24703
4.43,1.78,-12.72,1.23,-0.74,4.71,6.61,19.86,-43.67,24737
0.34,-1.12,-11.85,1.21,-0.61,4.59,11.18,17.17,-45.72,24771
2.20,-0.41,-10.94,1.16,-0.26,4.03,14.45,14.29,-46.74,24805
4.12,6.20,-7.12,1.09,0.62,3.38,17.17,11.24,-48.52,24839
-5.96,-4.38,-14.58,0.51,0.62,5.17,21.40,7.56,-48.47,24874
0.82,-13.02,-12.91,0.95,1.08,1.22,24.09,4.47,-49.27,24908
-5.01,3.78,-8.96,2.28,1.93,-1.71,26.38,3.17,-49.69,24942
-1.46,3.51,-9.03,2.80,1.38,-2.26,27.57,2.65,-50.69,24976
-3.17,1.80,-8.86,2.57,1.19,-2.06,27.71,1.45,-51.89,25010
-8.77,0.15,-15.78,2.12,0.15,-1.95,27.61,1.24,-54.37,25044
-11.95,2.36,-14.96,2.00,-1.84,-3.45,24.28,0.39,-57.44,25079
-3.85,1.60,-14.08,3.37,-4.07,-5.77,16.66,-2.43,-62.95,25113
-9.70,12.19,-18.55,3.82,-4.71,-10.45,7.45,-7.25,-66.46,25147
2.81,32.05,-18.96,-0.23,-3.40,-14.10,0.23,-9.57,-64.92,25181
-0.94,11.10,-13.25,-1.21,-1.77,-5.61,-2.72,-10.33,-60.55,25215
1.70,7.68,-10.77,-0.70,-0.22,-4.59,-2.35,-9.44,-57.51,25250
-5.31,4.91,-9.81,0.01,0.22,-2.82,-1.55,-7.56,-52.51,25284
-13.09,-6.00,-12.27,0.28,0.46,-4.19,0.44,-5.93,-49.63,25318
2.82,18.86,-10.35,0.98,0.47,-6.72,0.73,-4.22,-46.61,25352
4.51,9.14,-9.57,-0.61,0.10,-1.37,0.10,-0.94,-43.51,25386
-0.34,5.50,-4.13,-1.00,-0.55,-0.18,-0.28,1.65,-40.95,25420
13.81,-4.65,-6.84,-1.70,-1.52,1.40,-1.32,5.10,-37.94,25455
3.16,-1.28,-5.97,-0.37,-0.59,1.77,0.20,7.31,-35.78,25489
10.62,-1.07,-7.24,-0.38,-1.24,2.09,1.78,8.58,-33.98,25523
8.25,-3.77,-10.33,-0.68,-1.66,4.03,5.01,9.13,-32.62,25557
7.91,-5.72,-10.58,-0.63,-1.84,6.30,8.14,8.56,-32.08,25591
9.49,-4.98,-10.05,-0.27,-2.03,6.34,12.42,7.00,-32.65,25625
6.63,-1.91,-13.99,-0.17,-0.89,6.78,16.78,3.81,-33.50,25660
1.12,3.47,-6.75,-0.18,-0.54,7.08,19.01,-1.14,-33.46,25694
2.78,5.79,-9.31,0.22,0.59,5.01,21.08,-5.69,-34.04,25728
-10.70,-4.07,-12.89,0.36,0.32,3.52,22.45,-8.89,-33.94,25762
4.05,0.87,-9.50,1.06,2.22,-1.68,23.85,-8.78,-32.51,25796
-0.54,5.34,-7.94,0.89,1.75,-0.78,25.37,-8.96,-30.65,25831
2.07,-5.89,-10.72,0.82,1.14,-0.25,26.43,-9.46,-30.91,25865
-1.12,-3.29,-7.37,1.27,1.29,-0.79,28.06,-9.65,-30.74,25899
2.19,1.32,-10.71,1.62,0.43,-1.24,29.19,-9.32,-30.82,25933
-4.86,1.25,-11.84,1.70,-0.18,-1.93,30.25,-9.24,-31.03,25967
-4.04,6.80,-13.72,1.30,-0.90,-1.57,31.26,-8.55,-32.86,26001
-7.72,-0.15,-12.28,1.33,-1.76,-3.58,31.83,-6.31,-35.75,26036
-11.48,3.97,-12.95,1.93,-1.89,-5.06,31.26,-2.69,-39.35,26070
-20.74,24.04,-9.83,1.45,-2.15,-12.58,25.31,7.64,-43.92,26104
-7.02,20.43,-9.88,1.10,0.30,-8.32,16.54,14.92,-46.43,26138
1.25,18.87,-14.67,-0.54,-0.35,-3.06,7.75,17.60,-45.41,26172
4.52,-0.55,-10.60,-0.49,-0.98,-0.88,8.51,17.90,-43.86,26207
2.35,1.82,-7.94,-0.60,-0.86,-1.27,6.58,17.99,-41.58,26241
4.37,-2.61,-8.74,-0.13,-1.89,0.90,5.70,16.69,-39.94,26275
6.94,-1.32,-6.92,-0.49,-0.71,0.85,6.71,16.03,-38.50,26309
9.14,0.39,-8.54,-0.76,-0.65,2.03,8.13,15.29,-36.70,26343
7.71,0.17,-10.23,-0.97,-0.44,3.19,11.20,13.33,-35.94,26377
10.26,-0.34,-10.40,-1.30,-0.86,3.49,13.50,11.14,-35.12,26412
13.70,-9.56,-8.82,-1.31,-1.25,3.68,15.02,9.28,-34.46,26446
7.96,-6.17,-10.29,-0.45,-1.82,3.73,15.43,7.60,-34.73,26480
1.48,-2.40,-10.14,-0.73,-1.87,5.42,15.48,5.71,-34.55,26514
-4.92,3.15,-12.97,0.09,-2.27,5.52,15.67,3.52,-35.49,26548
-6.59,4.41,-11.16,0.96,-1.41,5.94,16.71,1.27,-36.77,26583
-4.54,1.02,-10.91,0.82,0.58,4.67,18.46,-1.08,-36.03,26617
1.95,-2.43,-9.20,0.75,0.99,2.91,19.79,-2.86,-36.16,26651
0.60,6.15,-6.64,0.96,1.46,2.87,21.21,-3.74,-35.49,26685
4.64,-3.42,-11.34,0.98,1.00,3.18,22.95,-5.51,-35.22,26719
-0.21,-8.69,-7.59,1.46,1.67,1.24,24.31,-7.15,-35.55,26753
0.24,3.50,-8.27,2.34,1.41,-1.13,26.59,-6.21,-35.84,26788
3.07,-0.65,-9.32,1.46,0.94,-0.35,28.65,-6.14,-37.09,26822
-5.14,1.13,-13.75,1.64,0.33,-1.28,29.23,-6.33,-38.21,26856
-8.12,1.30,-15.21,1.92,-0.66,-1.22,29.49,-6.50,-40.60,26890
-17.61,9.93,-14.09,2.81,-2.03,-3.09,29.07,-5.74,-44.50,26924
-1.30,9.48,-11.57,2.96,-4.41,-7.54,24.09,-3.03,-49.24,26958
-0.99,15.82,-15.61,0.78,-3.73,-14.10,12.83,4.49,-53.16,26993
6.30,7.28,-9.70,0.05,-1.90,-6.82,4.34,6.26,-51.39,27027
-3.93,-0.34,-7.34,-0.53,-0.75,-1.84,1.08,7.99,-48.73,27061
-5.68,7.34,-8.52,0.02,-0.25,-2.23,-1.46,8.59,-44.93,27095
-2.31,6.14,-12.78,-0.10,-0.11,-2.16,-2.19,10.51,-40.78,27129
-0.71,5.52,-11.05,-0.05,-0.07,-1.99,-1.40,12.54,-35.87,27164
4.68,7.36,-6.04,-0.18,0.64,-2.48,-0.77,14.95,-33.31,27198
5.83,7.58,-10.13,-0.36,0.53,-1.79,0.06,17.54,-30.99,27232
0.16,2.75,-10.44,-0.76,0.02,-0.82,1.13,19.80,-29.51,27266
3.16,1.06,-6.90,-1.09,-0.01,-0.52,2.53,22.23,-28.87,27300
1.99,-3.28,-10.16,-1.10,0.18,1.75,5.71,23.30,-27.86,27334
5.64,-4.13,-15.90,-1.13,-0.51,2.12,8.86,23.71,-27.62,27369
9.23,-0.67,-9.87,-1.29,-1.25,2.38,12.50,23.55,-28.84,27403
14.88,-8.62,-7.61,-1.05,-0.91,2.34,15.35,21.56,-30.12,27437
5.14,3.60,-5.35,-0.70,-0.41,1.82,16.50,20.55,-31.96,27471
-0.08,1.47,-9.03,-1.00,-0.69,2.71,18.09,18.74,-33.10,27505
-3.78,4.63,-10.37,-0.80,-0.92,2.31,19.42,17.09,-34.27,27540
-3.56,2.59,-10.95,-0.84,-1.43,3.27,20.33,15.65,-35.81,27574
0.41,-3.58,-12.40,-0.52,-2.02,4.60,20.62,12.01,-37.94,27608
-1.50,-6.25,-11.21,-0.05,-1.34,5.64,20.86,9.38,-39.17,27642
1.65,-4.00,-13.02,-0.12,-1.10,4.31,20.89,6.52,-41.13,27676
0.40,-1.77,-10.50,0.27,-0.63,3.40,20.61,4.43,-41.64,27710
0.61,-1.66,-9.40,0.55,0.25,1.87,20.26,3.45,-41.01,27745
0.87,-0.06,-10.36,1.15,1.11,-0.32,19.34,3.22,-40.03,27779
3.07,1.65,-11.70,1.44,1.48,-1.81,18.27,3.04,-39.75,27813
0.45,6.52,-5.57,1.84,1.47,-2.85,17.67,3.87,-38.91,27847
-0.09,2.96,-10.15,1.18,0.71,-2.04,15.52,5.00,-37.28,27881
-1.28,4.97,-11.34,1.92,0.20,-3.28,13.31,5.80,-36.19,27916
-5.25,1.50,-10.04,1.85,-0.56,-3.48,10.26,6.88,-35.66,27950
0.75,4.18,-10.01,1.57,-1.05,-5.36,5.95,8.55,-33.91,27984
-9.50,8.44,-10.90,1.36,-0.89,-3.07,3.49,9.13,-31.45,28018
-0.90,-0.58,-8.85,1.01,-0.54,-4.60,-0.54,11.59,-29.35,28052
0.21,2.63,-11.41,0.52,-0.87,-2.84,-3.92,11.79,-26.47,28086
2.66,5.84,-10.57,0.15,-0.76,-2.13,-6.02,13.93,-22.67,28121
0.93,5.42,-9.59,0.11,0.22,-1.44,-7.53,15.02,-19.86,28155
-0.69,3.31,-11.14,-0.59,-0.31,-0.55,-8.10,16.54,-16.91,28189
5.60,1.64,-8.16,-1.04,-1.01,0.27,-7.15,18.33,-12.98,28223
10.03,-3.30,-9.87,-1.42,-1.34,1.51,-4.15,19.86,-8.92,28257
11.54,-4.73,-10.33,-0.53,-0.63,3.47,-0.28,21.38,-6.75,28291
9.31,-5.26,-8.18,-0.78,-0.12,3.85,5.22,22.35,-5.14,28326
11.33,-2.61,-10.51,-0.93,-0.63,3.98,10.74,22.00,-2.95,28360
6.92,1.41,-9.96,-0.52,-0.94,4.95,18.24,19.67,-4.31,28394
-4.73,4.09,-11.80,-0.63,-0.73,6.73,24.45,16.22,-3.77,28428
-6.18,3.47,-9.98,0.04,-0.82,4.03,28.87,12.19,-4.27,28462
-0.47,1.60,-8.97,0.03,-0.31,1.93,32.42,9.62,-5.80,28497
-1.72,-0.33,-9.46,0.23,0.77,0.64,34.08,8.78,-6.56,28531
-1.80,-2.79,-9.36,0.17,1.21,1.10,35.05,8.13,-6.07,28565
-3.96,-3.24,-9.87,0.71,1.52,0.11,35.98,8.14,-6.90,28599
-3.77,-2.02,-10.81,1.20,1.07,-0.39,36.55,9.37,-7.44,28633
-2.06,-1.09,-10.95,1.45,0.37,-0.64,37.33,10.35,-10.82,28667
2.40,1.38,-8.93,1.59,-0.19,-1.08,37.09,12.28,-13.64,28702
7.75,7.44,-6.84,1.30,0.09,-1.60,36.04,13.55,-17.07,28736
6.81,2.46,-9.44,0.95,-0.35,-1.72,35.30,14.79,-20.17,28770
1.75,0.98,-10.56,1.43,-0.46,-2.26,33.32,16.15,-22.29,28804
-1.79,-0.18,-11.15,1.82,-0.95,-3.28,30.52,18.36,-26.12,28838
-5.86,-0.47,-10.66,1.46,-1.31,-4.04,27.11,20.17,-29.32,28873
-14.38,1.99,-9.98,0.99,-1.69,-7.32,19.07,25.27,-31.82,28907
-5.09,10.07,-10.84,0.44,-0.48,-7.00,9.56,29.07,-32.67,28941
-6.11,7.43,-10.97,0.14,-0.34,-2.06,5.22,29.96,-31.83,28975
-5.71,4.76,-11.45,-0.01,0.23,-1.92,2.24,31.22,-30.65,29009
3.81,12.16,-6.32,0.34,0.36,-3.68,-1.93,31.39,-28.87,29043
7.98,3.94,-9.40,-1.53,-1.52,1.55,-3.45,33.43,-25.30,29078
11.44,-5.02,-5.67,-1.31,-0.69,2.17,-0.86,33.91,-19.75,29112
13.03,-0.93,-10.30,-1.51,-0.47,1.41,0.82,34.70,-15.84,29146
12.09,2.08,-7.15,-0.85,0.32,1.19,2.15,35.46,-12.17,29180
11.73,-5.58,-8.97,-1.20,-0.10,1.84,4.17,35.55,-8.35,29214
4.07,-6.00,-10.71,-1.03,-0.18,2.33,7.73,35.74,-5.06,29249
-1.72,-2.62,-12.20,-0.85,-1.56,2.38,12.41,34.87,-3.35,29283
-2.87,-2.44,-15.37,-0.01,-3.29,4.53,20.55,32.68,-2.89,29317
3.33,6.07,-8.70,-0.73,-3.64,8.98,35.31,23.88,-7.85,29351
-0.52,-16.26,-6.96,-0.31,-2.40,6.84,46.02,11.66,-14.75,29385
2.21,-6.24,-9.91,2.03,-0.37,4.29,49.66,4.46,-19.06,29419
8.09,8.64,-10.51,0.96,1.34,-0.93,49.23,4.91,-23.30,29454
0.07,1.04,-5.94,1.05,1.86,-0.12,49.37,3.13,-24.50,29488
2.89,0.90,-7.51,1.62,2.08,-1.29,48.98,3.74,-24.88,29522
1.59,2.41,-8.88,1.15,1.15,-1.49,47.52,4.53,-26.56,29556
-0.23,1.05,-10.56,0.81,0.44,-2.06,46.04,6.21,-28.00,29590
-1.23,3.77,-11.96,1.02,-0.08,-2.89,43.58,8.77,-31.44,29625
-1.59,0.11,-10.68,1.41,-1.00,-3.94,40.68,10.36,-35.09,29659
-13.57,-0.40,-8.79,1.23,-1.24,-6.23,36.32,13.80,-37.77,29693
-20.91,5.19,-9.61,2.17,-0.51,-11.33,26.44,20.75,-40.76,29727
-2.91,13.17,-11.62,1.60,0.58,-5.15,18.25,25.01,-41.11,29761
-12.37,17.41,-13.70,-0.23,-0.18,-2.55,17.14,26.02,-38.19,29795
-2.98,4.58,-11.37,-0.76,-0.60,0.28,18.40,26.83,-35.11,29830
0.85,-3.18,-9.59,-0.86,-1.06,2.10,21.67,26.66,-33.32,29864
2.34,-11.04,-9.75,-0.98,-1.81,3.92,28.84,22.54,-31.73,29898
6.80,-11.30,-8.06,-0.41,-0.84,2.50,33.57,18.63,-32.13,29932
4.89,2.31,-7.12,-0.19,0.37,0.75,36.71,15.62,-32.04,29966
7.03,4.21,-7.71,-0.24,0.76,0.31,38.72,13.97,-30.84,30000
4.79,0.62,-10.46,-0.92,0.11,1.11,40.40,12.26,-31.54,30035
10.06,-3.16,-8.05,-0.83,0.02,1.35,42.68,9.98,-30.59,30069
10.26,0.45,-8.29,-0.44,0.22,1.52,44.46,7.80,-31.23,30103
1.47,5.61,-8.28,-0.55,0.01,1.49,46.24,4.81,-31.99,30137
1.20,-1.53,-10.17,-1.09,-0.79,2.39,47.22,1.90,-34.33,30171
-1.97,-1.52,-10.73,-0.84,-1.36,2.71,47.50,-2.54,-37.71,30206
-1.39,-3.31,-11.76,-0.38,-2.24,3.73,47.50,-8.99,-43.69,30240
0.42,-2.90,-11.40,-0.05,-2.07,5.05,44.31,-15.55,-48.83,30274
-4.86,-5.78,-11.39,0.33,-1.51,7.00,39.74,-25.50,-54.06,30308
2.63,-9.59,-10.33,0.94,-0.14,2.28,34.54,-29.58,-57.16,30342
1.05,-1.55,-10.10,1.20,0.30,0.20,32.86,-30.46,-59.13,30376
-1.29,0.62,-10.82,1.54,-0.07,0.48,30.43,-32.27,-60.65,30411
-1.12,4.53,-7.95,1.77,0.59,-1.39,29.98,-33.60,-61.74,30445
-6.52,4.27,-10.47,1.42,0.47,-2.80,29.86,-33.22,-62.39,30479
-10.21,6.71,-10.76,1.62,-0.15,-5.31,31.64,-30.78,-64.21,30513
-16.58,10.69,-10.81,1.71,-0.92,-8.56,32.33,-26.31,-66.24,30547
-5.23,20.63,-12.26,0.92,-0.40,-8.88,32.17,-18.34,-69.79,30582
-8.49,9.98,-10.34,1.24,-0.01,-3.61,30.40,-17.13,-70.49,30616
2.22,10.51,-12.05,0.60,-0.32,-4.59,27.13,-16.50,-70.48,30650
4.21,5.63,-8.62,0.34,-0.76,-2.51,22.33,-17.44,-70.40,30684
8.53,5.59,-9.79,-0.29,-0.99,-2.92,18.75,-18.14,-69.37,30718
11.26,3.66,-7.96,-1.24,-0.85,-0.40,14.60,-18.31,-69.04,30752
8.13,-2.70,-9.41,-1.07,-0.29,0.53,11.82,-18.69,-67.95,30787
3.41,0.14,-7.91,-0.56,-0.23,0.88,9.57,-19.98,-66.27,30821
2.89,1.31,-9.33,-1.05,-0.69,1.24,5.71,-20.97,-65.65,30855
2.37,-3.29,-8.71,-0.72,-1.06,2.37,1.78,-21.70,-64.06,30889
-0.52,-2.19,-9.08,-0.71,-1.03,3.20,-3.24,-22.42,-63.50,30923
-0.84,-0.86,-10.10,-0.49,-1.05,3.46,-9.34,-22.11,-61.15,30958
5.00,0.73,-10.44,-0.23,-0.78,3.40,-14.38,-21.86,-59.79,30992
2.38,-2.32,-11.64,-0.34,-0.25,3.34,-18.55,-20.43,-57.66,31026
3.56,-0.11,-11.17,-0.29,0.10,3.29,-21.10,-17.87,-55.89,31060
2.66,-0.14,-10.55,-0.33,0.16,3.30,-23.76,-14.83,-54.52,31094
0.78,-4.24,-12.33,-0.30,-0.17,2.36,-26.83,-11.90,-52.08,31128
-3.39,0.25,-11.24,-0.14,-0.23,3.03,-28.33,-8.54,-49.66,31163
-1.43,-1.37,-11.57,-0.01,-0.47,2.65,-29.68,-4.62,-46.29,31197
-0.86,-2.29,-9.75,0.39,-0.39,2.62,-31.09,-1.43,-43.80,31231
-1.00,-1.99,-11.11,0.65,-0.35,1.79,-31.48,1.53,-41.27,31265
-0.16,-0.87,-8.99,1.03,0.23,1.04,-30.97,3.35,-39.18,31299
-0.96,0.78,-10.27,1.21,0.50,-0.35,-30.44,3.93,-37.80,31333
-5.10,-1.47,-9.96,1.45,0.70,-1.17,-29.47,3.49,-37.21,31368
-5.00,-1.48,-11.26,1.70,0.34,-2.24,-28.88,1.48,-36.07,31402
-6.66,3.83,-11.06,1.90,-0.15,-3.98,-29.03,-1.30,-34.87,31436
-10.54,8.57,-10.44,2.25,-0.77,-5.04,-28.85,-6.21,-31.85,31470
-6.06,10.15,-10.90,1.97,-1.25,-5.15,-28.73,-10.46,-28.15,31504
-3.20,8.76,-10.73,1.51,-1.40,-5.59,-28.06,-14.41,-23.98,31539
-2.16,12.32,-10.62,1.23,-1.41,-5.91,-26.72,-18.47,-19.18,31573
-3.46,9.72,-12.92,0.36,-1.16,-4.86,-24.39,-20.93,-15.74,31607
0.45,6.14,-11.64,0.15,-0.88,-3.83,-22.89,-22.96,-12.39,31641
3.71,5.79,-10.45,-0.21,-0.69,-3.38,-21.56,-23.81,-9.73,31675
3.29,3.97,-10.54,-0.15,-1.00,-2.50,-21.31,-23.90,-6.72,31709
6.06,5.55,-9.60,-0.33,-0.86,-2.20,-20.42,-25.23,-4.03,31744
5.25,5.28,-8.10,-0.57,-0.20,-1.05,-20.91,-26.51,-2.69,31778
5.29,2.33,-8.34,-0.53,0.03,-0.21,-21.46,-26.53,-1.14,31812
1.78,2.20,-8.29,-0.58,0.32,0.11,-22.96,-25.80,-0.26,31846
-0.28,-2.12,-11.10,-0.61,0.02,0.59,-23.82,-25.88,1.05,31880
-0.59,-2.15,-9.41,-0.67,-0.28,0.99,-25.30,-25.77,2.62,31915
-1.67,-3.45,-10.33,-0.72,-0.62,1.46,-26.92,-24.23,4.15,31949
-4.56,-3.76,-10.77,-0.54,-1.06,2.54,-27.80,-21.89,8.55,31983
-6.00,-3.66,-11.38,-0.55,-1.88,4.02,-28.76,-17.47,11.49,32017
-2.34,-4.73,-9.56,-0.06,-1.96,4.48,-28.40,-12.58,14.92,32051
0.77,-7.31,-11.17,-0.09,-1.73,5.37,-26.67,-5.76,19.73,32085
2.17,-8.43,-13.08,0.06,-1.48,5.66,-23.66,1.02,22.03,32120
5.90,-7.86,-12.77,0.22,-0.48,4.81,-20.99,6.56,23.87,32154
12.80,1.14,-12.03,-0.43,0.41,0.23,-19.38,8.99,23.71,32188
8.52,5.64,-6.47,0.24,1.27,-0.46,-20.84,9.16,23.74,32222
3.80,3.03,-7.34,-0.19,1.23,-0.80,-22.35,8.55,23.18,32256
1.72,1.73,-9.69,-0.36,1.03,-0.09,-23.79,8.59,22.27,32291
-0.16,3.80,-9.61,-0.38,0.83,-0.10,-24.92,8.35,21.53,32325
-3.71,3.25,-10.62,-0.36,0.65,-0.13,-25.68,7.85,21.78,32359
-6.58,-2.01,-10.84,-0.34,0.28,0.08,-25.81,8.21,21.73,32393
-10.91,-5.31,-10.25,-0.22,-0.38,0.68,-25.27,8.77,23.14,32427
-14.66,-3.30,-13.45,-0.20,-1.49,1.71,-22.23,9.62,25.04,32461
-12.58,-0.43,-10.75,0.19,-2.11,2.80,-17.17,10.83,27.33,32496
2.22,-1.31,-10.91,-0.21,-3.08,4.59,-7.82,10.83,30.31,32530
2.78,-12.52,-23.06,-0.31,-3.56,9.70,4.41,10.46,32.21,32564
-11.70,-20.53,-11.70,-0.91,-1.59,6.76,12.44,7.31,33.08,32598
-0.36,-17.10,-18.36,0.26,-0.84,2.72,18.59,4.36,33.62,32632
8.42,-2.18,-12.90,0.59,-1.40,0.43,21.94,4.21,32.65,32666
14.23,0.14,-9.76,0.77,-1.05,-1.11,25.97,4.46,30.40,32701
14.53,7.50,-9.61,0.32,0.11,-1.55,26.37,5.57,28.78,32735
7.82,1.15,-10.15,-0.17,0.89,-0.89,25.29,5.89,29.25,32769
2.79,1.84,-9.47,-0.31,0.72,-0.61,24.38,5.69,30.20,32803
0.14,5.02,-10.28,-0.32,0.51,0.05,23.06,5.28,29.99,32837
-0.27,4.47,-9.24,-0.43,0.73,0.46,22.38,3.23,30.56,32872
-2.43,2.53,-9.69,-0.43,0.69,0.65,21.84,2.08,30.75,32906
-10.16,-2.77,-11.01,-0.33,0.11,1.43,21.95,-0.34,30.72,32940
-11.92,-0.76,-10.77,-0.30,-0.49,1.72,24.19,-3.03,29.87,32974
-16.52,-2.20,-11.63,0.13,-1.44,3.19,27.38,-6.14,26.79,33008
-17.46,-3.10,-15.53,0.08,-2.49,5.34,31.13,-13.50,21.76,33042
-8.51,-8.44,-13.23,0.45,-2.47,5.32,31.73,-21.54,15.04,33077
-1.16,-13.86,-15.86,0.65,-2.69,6.48,28.35,-29.22,9.15,33111
6.52,-13.56,-13.64,0.87,-2.14,6.71,19.77,-35.85,4.40,33145
3.19,-14.74,-16.35,0.76,-1.06,5.40,10.01,-37.49,5.92,33179
8.44,-4.68,-11.35,0.85,-0.38,1.85,2.59,-37.11,7.92,33213
10.59,-1.13,-12.55,0.65,-1.07,0.56,-1.93,-35.27,12.25,33248
18.55,9.26,-7.19,1.23,-0.27,-2.13,-2.28,-33.86,16.06,33282
18.35,4.49,-8.32,-0.20,1.36,-1.47,-2.88,-33.41,19.25,33316
7.33,0.50,-6.42,-0.24,1.52,-0.73,-5.04,-33.24,18.62,33350
4.66,2.85,-6.54,0.02,1.52,-0.06,-6.71,-33.79,18.15,33384
-0.34,2.93,-10.42,-0.44,1.24,0.25,-9.25,-34.26,16.97,33418
-1.63,6.23,-11.66,-0.49,0.88,-0.16,-10.42,-35.08,15.84,33453
-6.66,1.34,-11.94,-0.16,0.24,0.37,-11.63,-35.02,15.89,33487
-8.74,-4.24,-9.83,-0.41,-0.51,1.18,-12.67,-35.05,16.31,33521
-15.72,-4.37,-13.26,-0.59,-1.96,3.11,-13.88,-34.17,18.69,33555
-12.90,2.04,-13.79,-0.04,-3.10,4.12,-14.38,-31.51,23.66,33589
-14.03,-1.67,-13.77,0.27,-2.83,7.46,-13.99,-27.84,28.52,33624
-6.23,-15.69,-2.83,0.79,-1.16,3.59,-10.80,-22.26,31.42,33658
7.08,-7.41,-12.04,0.76,-1.66,3.55,-5.98,-18.52,32.07,33692
7.53,-2.06,-8.15,1.12,-1.80,4.22,-0.42,-14.43,30.66,33726
5.32,-2.19,-14.49,0.79,-0.29,4.28,3.62,-12.36,27.19,33760
3.13,1.76,-13.90,0.92,0.39,1.79,3.89,-11.11,25.39,33794
12.84,3.39,-3.37,1.12,0.96,-0.66,4.85,-9.18,23.02,33829
10.61,3.84,-6.72,0.81,1.47,-1.56,5.14,-7.83,22.24,33863
9.29,2.09,-6.07,0.49,1.62,-1.45,2.40,-6.80,21.12,33897
4.37,1.72,-7.82,-0.19,1.26,-0.95,0.96,-6.74,20.67,33931
3.02,-2.10,-10.23,-0.70,0.29,-0.20,0.10,-7.09,20.75,33965
2.79,-1.33,-8.01,-0.03,0.45,0.17,0.20,-7.69,20.55,34000
3.03,1.40,-9.14,-0.20,0.12,0.61,-0.23,-7.79,20.46,34034
1.60,4.04,-9.60,-0.30,0.20,0.40,-0.15,-8.21,19.56,34068
-0.38,2.90,-11.12,-0.35,0.17,0.35,-0.47,-9.06,19.86,34102
-3.28,-0.17,-10.50,-0.24,0.03,0.29,-0.04,-9.02,19.76,34136
-6.53,-0.66,-12.00,-0.32,-0.36,0.96,0.85,-9.13,18.99,34170
-9.30,-3.55,-14.19,-0.33,-1.42,1.78,2.84,-9.49,17.66,34205
-7.62,-2.50,-14.68,-0.15,-1.82,1.98,6.05,-9.88,16.19,34239
-6.43,-3.47,-10.36,0.17,-1.81,2.61,9.59,-10.14,12.86,34273
2.68,-3.88,-11.09,0.13,-1.79,3.86,13.01,-11.81,10.10,34307
6.62,-7.82,-5.98,0.27,-1.66,1.42,15.52,-12.85,6.64,34341
11.11,-0.33,-9.59,0.49,-0.81,1.03,18.12,-13.45,2.89,34375
6.37,8.03,-9.52,0.88,0.04,0.33,18.74,-13.34,0.77,34410
6.20,6.47,-8.26,0.38,0.78,-0.09,19.25,-13.96,-0.57,34444
6.76,2.31,-8.07,0.34,1.31,-0.28,18.82,-14.44,-1.77,34478
6.45,-0.58,-7.44,0.22,1.27,-0.90,18.44,-14.22,-1.01,34512
4.04,-1.64,-9.98,0.09,0.98,-0.97,18.50,-14.05,-1.27,34546
2.90,-1.09,-8.40,0.01,0.93,-1.04,18.25,-13.31,-2.10,34581
0.29,-2.66,-9.37,0.26,0.55,-0.60,18.37,-13.59,-2.63,34615
1.18,0.83,-9.27,0.10,0.25,-0.45,18.82,-13.65,-3.68,34649
4.25,1.42,-10.38,-0.27,-0.45,0.06,18.71,-14.66,-4.25,34683
5.78,3.38,-7.42,-0.45,-0.53,0.50,18.97,-15.86,-5.48,34717
6.17,3.06,-8.43,-0.57,-0.60,0.69,19.67,-16.37,-6.68,34751
5.28,2.43,-9.07,-0.42,-0.47,0.86,19.44,-17.42,-8.07,34786
2.60,3.20,-9.92,-0.41,-0.33,1.11,19.47,-18.34,-7.26,34820
-1.32,0.40,-10.19,-0.41,-0.57,1.45,18.81,-19.51,-8.35,34854
-2.81,0.96,-11.08,-0.29,-0.77,2.17,17.77,-21.16,-9.34,34888
-7.20,0.66,-11.83,-0.22,-1.07,3.45,17.41,-23.37,-10.93,34922
-4.73,-5.40,-10.48,0.16,-1.17,3.08,14.92,-26.18,-11.87,34957
-0.05,-4.42,-10.17,0.36,-0.98,3.05,12.39,-27.81,-14.05,34991
-3.29,-0.71,-9.70,0.49,-0.63,2.95,8.45,-29.36,-14.48,35025
-1.10,2.15,-9.78,0.51,0.21,2.19,5.61,-29.89,-14.67,35059
1.78,3.21,-9.40,0.66,0.92,1.78,1.93,-30.94,-14.22,35093
2.91,-2.59,-4.79,1.06,1.35,1.53,-1.53,-31.37,-13.23,35127
7.67,-4.88,-7.65,1.08,1.00,0.35,-4.06,-31.47,-12.32,35162
8.01,0.03,-9.10,1.10,0.73,-0.32,-5.29,-30.87,-11.21,35196
1.35,3.28,-9.24,1.15,0.55,-0.35,-6.24,-31.15,-10.00,35230
-0.70,0.32,-11.09,1.11,0.13,-0.47,-7.18,-31.39,-8.92,35264
-3.82,-0.91,-11.10,1.19,-0.12,-0.92,-7.78,-31.57,-6.77,35298
-8.25,0.33,-11.14,0.99,-1.25,-2.24,-6.80,-32.01,-3.86,35333
-4.97,-3.94,-11.40,1.21,-2.54,-3.85,-3.68,-32.70,-0.91,35367
-11.07,-1.77,-13.77,1.51,-2.94,-6.01,2.91,-32.65,3.03,35401
-15.76,24.03,-13.38,0.91,-2.56,-13.06,15.73,-28.73,6.59,35435
-0.67,14.69,-11.11,0.22,-1.70,-9.54,25.24,-20.34,6.62,35469
9.17,5.70,-9.26,0.09,-0.63,-2.82,28.97,-14.22,6.61,35503
10.05,1.70,-7.72,0.48,0.56,0.23,31.13,-11.34,5.58,35538
6.84,-0.17,-8.46,-0.25,0.72,0.93,31.72,-10.68,4.50,35572
4.71,-2.95,-7.67,0.66,2.13,-0.15,31.04,-8.77,6.20,35606
4.23,-2.22,-13.09,-0.56,0.49,0.46,30.75,-7.42,6.75,35640
6.41,-5.30,-8.31,-0.18,1.63,0.21,30.66,-6.64,8.08,35674
1.07,-2.27,-9.39,0.27,0.71,-0.03,30.68,-5.38,8.27,35708
-1.03,-2.87,-12.22,0.20,-0.05,-0.48,31.64,-3.70,7.16,35743
-6.79,-3.25,-12.21,0.48,-0.87,-0.61,33.27,-1.15,3.73,35777
-10.60,5.28,-17.53,0.54,-2.49,-1.51,36.03,2.37,-0.10,35811
-14.91,5.90,-15.31,2.06,-4.05,-1.87,37.31,6.20,-9.03,35845
-3.92,12.52,-12.44,1.26,-4.85,-6.46,34.30,14.10,-23.28,35879
-0.59,19.38,-9.86,-1.47,-3.29,-10.81,22.35,22.86,-30.97,35914
2.59,13.06,-6.58,-0.28,-1.92,-5.54,11.58,25.52,-35.79,35948
9.95,4.76,-7.47,-0.25,0.52,-2.33,8.07,24.83,-38.56,35982
3.19,2.09,-13.04,-1.05,1.01,-2.51,7.09,24.57,-39.48,36016
-1.49,0.58,-11.35,-0.77,0.51,-1.49,5.69,23.74,-41.98,36050
2.11,4.04,-9.65,-0.59,0.71,-1.90,4.63,23.28,-43.64,36084
3.33,1.40,-13.66,-1.18,0.19,-1.81,3.77,22.45,-44.10,36119
5.26,-2.85,-7.79,-1.23,-0.28,-0.73,2.94,22.79,-46.24,36153
1.88,1.56,-5.31,-0.66,0.24,-0.56,2.88,22.83,-47.54,36187
5.44,2.22,-10.03,-1.42,-0.59,0.12,2.97,23.33,-48.11,36221
2.15,-3.94,-11.16,-1.56,-1.06,1.55,3.49,23.40,-48.38,36255
3.17,-6.45,-10.60,-0.28,-1.88,3.31,5.16,23.27,-49.63,36290
3.51,-3.52,-9.89,-0.36,-2.84,4.85,6.12,22.10,-52.84,36324
7.00,3.13,-12.55,-0.03,-4.40,7.59,6.59,20.11,-56.75,36358
-3.43,-3.32,-14.37,1.01,-2.66,14.50,11.28,15.87,-59.15,36392
-6.15,-8.79,-11.66,0.80,-0.91,11.90,18.46,7.07,-61.87,36426
4.12,3.44,-7.65,1.31,-0.56,1.97,18.58,3.93,-62.89,36460
9.27,4.68,-11.72,0.86,0.25,2.48,17.11,1.83,-63.12,36495
3.22,0.29,-8.73,0.57,0.97,2.46,17.64,0.32,-63.50,36529
4.47,-1.51,-11.22,0.66,1.30,1.60,19.26,-0.29,-62.29,36563
1.34,-1.58,-8.08,0.99,1.47,1.08,20.80,-1.27,-61.49,36597
4.61,2.39,-6.88,1.02,1.67,-0.19,22.19,-0.76,-61.39,36631
2.82,1.26,-7.41,0.82,1.59,-0.72,23.76,0.77,-59.70,36666
0.79,-0.63,-11.89,0.74,1.34,-0.70,24.63,1.18,-59.08,36700
-5.04,2.08,-14.79,1.39,0.74,-0.95,24.54,1.86,-58.54,36734
-9.61,2.22,-14.98,1.73,-0.69,-1.09,23.08,2.12,-60.84,36768
-11.96,3.56,-12.42,1.21,-2.53,-1.82,18.17,4.34,-63.78,36802
0.83,-6.59,-12.15,2.86,-4.14,-4.21,7.73,5.51,-67.87,36836
-14.24,13.01,-11.53,2.65,-3.17,-8.40,-7.40,3.43,-69.67,36871
-4.10,22.87,-10.01,-0.44,-2.52,-10.99,-20.29,-2.69,-69.50,36905
4.97,12.84,-9.90,-1.30,-0.57,-4.47,-28.24,-10.54,-67.36,36939
3.07,5.49,-8.99,-0.10,0.23,-2.01,-29.52,-15.54,-66.22,36973
7.36,1.35,-9.60,-0.28,0.86,-2.45,-29.58,-20.53,-66.31,37007
-5.27,6.40,-7.96,-0.02,1.06,-2.36,-27.27,-26.09,-64.70,37041
0.65,2.20,-11.59,-0.69,0.01,-1.77,-25.61,-29.54,-64.44,37076
0.51,-2.73,-10.70,-0.48,-0.22,-1.67,-24.66,-31.83,-62.99,37110
0.28,4.14,-11.73,-0.55,-0.35,-2.04,-22.45,-35.30,-62.48,37144
7.97,-0.67,-8.51,-0.53,-0.91,-0.78,-21.62,-36.50,-61.56,37178
3.63,8.74,-8.11,-0.65,-0.49,-0.27,-20.64,-37.34,-60.58,37212
7.73,1.80,-7.83,-0.88,-1.19,1.61,-21.72,-35.66,-60.92,37247
4.99,-5.09,-10.02,-1.32,-1.28,3.05,-24.80,-32.53,-59.92,37281
1.01,-3.42,-10.02,-0.49,-1.66,3.56,-29.55,-28.40,-58.70,37315
1.20,-2.48,-11.42,-0.06,-2.35,5.31,-34.52,-23.97,-56.15,37349
8.05,-7.15,-10.05,0.05,-3.35,6.96,-40.47,-12.74,-49.68,37383
4.77,-6.86,-14.18,0.24,-2.60,11.49,-44.75,-1.75,-44.42,37417
-10.64,-13.14,-17.54,1.42,-1.40,10.06,-42.24,11.90,-40.34,37452
8.92,0.87,-9.52,0.81,-0.70,2.84,-40.22,16.14,-35.41,37486
0.70,5.92,-12.06,1.65,-0.22,3.72,-37.42,20.13,-32.97,37520
0.58,2.95,-10.47,0.89,0.87,2.81,-34.55,23.17,-33.05,37554
2.33,-2.38,-9.66,0.76,1.35,1.11,-31.32,25.91,-33.50,37588
-1.28,-2.17,-6.52,1.52,1.78,0.13,-30.12,25.39,-34.89,37623
-1.88,2.68,-7.72,1.48,1.80,-1.01,-29.90,24.96,-36.35,37657
-0.62,1.39,-9.62,1.49,1.17,-1.09,-30.82,24.71,-38.32,37691
-2.48,0.66,-10.97,1.63,0.86,-1.54,-31.99,23.60,-39.90,37725
-9.25,2.45,-12.72,1.72,-0.13,-1.65,-34.17,21.75,-41.13,37759
-14.38,4.07,-14.67,1.96,-1.08,-3.44,-37.17,17.67,-40.54,37793
-8.36,1.67,-11.72,2.97,-3.21,-4.99,-43.23,10.83,-36.33,37828
-12.97,11.06,-14.72,3.00,-3.46,-10.05,-48.82,-3.17,-31.67,37862
-3.45,26.12,-12.98,-0.09,-3.48,-12.39,-48.93,-24.25,-25.48,37896
-1.76,19.04,-6.85,-0.12,-1.73,-5.65,-43.45,-38.45,-18.85,37930
3.89,9.86,-9.99,-0.87,0.16,-3.44,-37.61,-46.43,-15.42,37964
3.68,5.44,-10.52,-0.76,0.10,-3.08,-31.15,-52.60,-12.28,37999
-0.65,3.35,-10.30,-0.23,0.18,-2.45,-22.16,-56.14,-9.72,38033
2.22,7.91,-12.33,-0.56,0.02,-2.37,-13.37,-58.86,-7.85,38067
2.53,2.67,-8.48,-0.80,0.04,-1.19,-4.36,-59.69,-7.95,38101
5.69,2.06,-9.56,-1.13,-0.17,-0.81,1.78,-59.66,-10.45,38135
5.38,-0.13,-8.47,-1.13,-0.43,0.14,6.31,-59.47,-13.42,38169
7.33,-3.42,-8.28,-1.71,-0.73,1.74,8.08,-58.52,-18.43,38204
2.43,-7.34,-11.41,-1.52,-1.44,3.29,6.15,-58.58,-22.39,38238
3.20,-7.31,-10.71,-0.55,-2.19,4.37,0.77,-57.42,-24.76,38272
7.00,-7.49,-11.32,0.64,-3.44,6.95,-8.84,-55.31,-24.92,38306
8.79,-6.34,-13.11,0.61,-3.77,7.97,-19.37,-50.57,-22.05,38340
8.79,-5.51,-15.44,0.75,-1.25,10.58,-32.11,-39.24,-18.88,38375
0.00,-4.65,-8.79,1.24,0.76,6.21,-38.70,-28.62,-17.39,38409
6.16,11.16,-8.42,0.76,1.19,-0.61,-38.38,-27.10,-17.38,38443
3.27,4.95,-8.33,0.66,1.30,1.52,-38.44,-25.24,-18.88,38477
-1.62,-0.69,-8.90,0.98,2.05,0.45,-38.15,-24.09,-21.00,38511
1.11,-2.89,-10.17,0.90,1.79,0.01,-37.52,-23.56,-23.15,38545
1.08,-0.74,-10.62,0.83,1.41,-0.74,-36.89,-24.51,-24.22,38580
-1.23,1.41,-12.49,1.05,0.97,-1.05,-35.88,-25.84,-24.32,38614
-3.32,3.56,-13.41,1.45,0.19,-1.29,-34.65,-27.01,-23.84,38648
-9.76,-4.26,-14.41,1.49,-1.35,-2.23,-33.85,-28.95,-21.92,38682
-10.58,-1.03,-12.84,1.69,-2.46,-4.20,-30.23,-33.32,-17.92,38716
-19.23,8.09,-9.60,2.86,-2.20,-7.68,-24.61,-38.67,-13.77,38750
-20.94,20.06,-4.84,2.30,-1.44,-12.25,-12.67,-44.93,-11.08,38785
-9.75,33.13,-16.68,0.42,-1.26,-10.11,2.38,-47.31,-10.35,38819
3.91,8.43,-8.96,-0.10,0.14,1.85,3.77,-47.59,-10.95,38853
4.61,1.66,-12.76,-0.90,-0.07,0.42,1.68,-47.92,-12.44,38887
0.46,-3.10,-10.16,-0.27,-1.13,1.79,1.13,-48.25,-13.78,38921
10.78,-3.90,-5.83,-0.38,-0.90,1.73,-0.32,-48.86,-14.40,38956
9.92,-0.12,-6.29,-0.59,-0.06,1.26,-2.65,-48.96,-15.61,38990
6.84,3.80,-8.69,-0.51,0.69,1.67,-4.03,-48.86,-16.27,39024
11.04,-0.40,-7.51,-1.59,0.87,1.78,-5.77,-48.23,-18.34,39058
0.00,-4.33,-11.84,-1.42,0.34,2.60,-8.86,-46.99,-20.23,39092
-2.82,-6.42,-11.90,-1.24,-0.74,1.84,-10.32,-45.82,-21.16,39126
-0.73,-10.59,-12.62,-0.49,-2.91,3.61,-13.40,-44.08,-19.72,39161
12.32,-8.89,-10.86,1.29,-3.37,3.76,-15.93,-41.30,-15.73,39195
12.95,1.90,-9.54,0.21,-1.87,4.00,-18.74,-37.42,-13.24,39229
-2.12,5.72,-10.83,0.32,-0.39,5.26,-22.67,-32.84,-10.79,39263
-5.20,8.97,-8.77,0.22,0.53,2.18,-24.19,-29.87,-10.99,39297
-4.25,3.54,-10.21,0.03,1.37,1.61,-24.22,-28.69,-11.20,39332
0.51,-4.18,-10.64,-0.12,1.28,1.28,-23.79,-27.76,-13.01,39366
0.78,-3.28,-12.22,0.33,1.00,1.85,-23.43,-26.10,-14.70,39400
1.77,-0.18,-9.77,0.42,0.88,2.00,-23.19,-24.38,-14.73,39434
-0.53,0.06,-10.92,0.96,1.21,0.57,-22.00,-22.96,-14.62,39468
-2.06,2.11,-11.18,1.51,0.89,-0.65,-19.88,-23.41,-14.06,39502
-5.84,2.64,-12.68,1.55,0.26,-1.12,-17.74,-24.01,-14.25,39537
-7.78,1.71,-10.87,1.51,-0.50,-1.62,-14.53,-24.33,-13.90,39571
-6.75,0.37,-10.37,1.69,-1.57,-3.55,-9.88,-25.37,-14.03,39605
-4.36,-0.57,-9.75,2.16,-2.17,-4.88,-4.27,-26.03,-14.21,39639
-10.60,14.63,-10.48,1.22,-1.77,-9.35,1.84,-25.23,-17.14,39673
-1.39,18.35,-10.21,0.28,-1.57,-7.26,8.58,-23.59,-21.25,39708
-1.07,11.20,-11.16,0.40,-0.28,-3.35,10.04,-22.42,-25.87,39742
-1.68,5.26,-12.73,0.09,0.29,-0.72,10.19,-23.14,-30.05,39776
-0.87,-0.13,-12.73,-0.64,0.33,-0.86,9.57,-24.55,-33.56,39810
3.53,-1.88,-9.57,-0.58,-0.37,-1.24,8.51,-25.15,-38.00,39844
3.69,2.91,-9.93,-0.62,-0.23,-1.84,7.78,-26.21,-40.54,39878
7.86,6.96,-7.26,-0.59,-0.13,-1.12,5.93,-27.07,-43.13,39913
2.67,1.59,-9.47,-0.60,-0.43,-0.17,3.52,-28.53,-44.97,39947
10.78,-2.66,-7.74,-1.18,-0.70,0.42,2.27,-29.09,-46.80,39981
11.01,-6.51,-9.35,-1.37,-0.59,2.02,-1.34,-29.35,-48.23,40015
5.03,-1.86,-9.32,-0.82,-0.81,2.29,-5.92,-28.63,-48.63,40049
1.93,-0.97,-11.11,-0.25,-1.53,3.84,-10.14,-28.73,-47.63,40083
5.62,-3.10,-10.98,-0.19,-2.54,5.59,-17.51,-26.25,-45.15,40118
8.69,-5.31,-12.57,-0.12,-2.16,6.83,-24.38,-22.65,-42.24,40152
2.97,-3.22,-11.24,0.59,-0.98,7.89,-29.22,-16.03,-39.04,40186
0.92,-0.36,-10.48,0.36,-0.19,4.49,-31.51,-10.41,-35.79,40220
1.26,5.01,-10.35,0.30,0.63,2.25,-30.87,-8.24,-33.63,40254
4.05,2.94,-8.25,0.45,1.51,2.23,-30.49,-6.01,-33.73,40289
-8.85,-2.02,-16.52,0.09,1.71,2.49,-29.29,-3.76,-34.05,40323
-4.82,-1.31,-11.64,1.03,2.16,-0.85,-28.19,-5.20,-34.24,40357
-6.14,-1.16,-11.36,1.83,1.60,-1.83,-27.17,-7.51,-33.75,40391
-6.59,2.37,-12.86,2.16,0.71,-2.23,-26.19,-10.45,-30.52,40425
-4.19,1.27,-12.07,2.13,-0.67,-2.37,-25.36,-12.29,-27.04,40459
-6.56,7.38,-12.91,2.08,-1.44,-3.13,-22.33,-14.83,-21.28,40494
-5.30,-0.11,-12.51,1.77,-3.01,-3.09,-18.33,-15.42,-17.10,40528
-6.07,11.47,-10.96,2.62,-2.24,-7.40,-11.88,-17.79,-14.62,40562
-8.82,12.62,-9.72,1.77,-2.08,-7.11,-7.02,-18.74,-16.12,40596
2.44,18.05,-11.14,0.08,-0.36,-6.68,-2.40,-20.14,-18.39,40630
-6.22,9.96,-9.65,0.48,-0.41,-1.27,0.58,-21.32,-21.94,40665
-4.47,-1.37,-11.51,-0.07,0.39,-2.14,2.63,-23.50,-24.66,40699
-1.47,7.02,-9.35,-0.11,-0.39,-2.39,5.74,-25.15,-27.62,40733
4.48,2.14,-11.26,-0.28,-0.87,-1.37,8.20,-26.75,-31.00,40767
4.25,2.73,-5.04,-0.31,-0.42,-2.16,10.26,-27.46,-35.05,40801
12.70,-4.84,-7.43,-0.85,-1.13,0.92,9.89,-28.24,-38.78,40835
12.60,-3.93,-5.89,-0.29,-0.59,1.01,8.74,-28.73,-40.82,40870
13.08,0.79,-7.18,-0.90,-0.18,0.72,7.70,-28.75,-42.96,40904
8.74,-1.34,-8.01,-1.40,0.14,1.69,6.39,-28.15,-45.97,40938
0.68,-0.56,-8.15,-1.46,-0.26,2.24,5.10,-27.80,-46.84,40972
-4.31,-0.51,-11.82,-1.64,-1.55,2.82,1.91,-26.28,-48.67,41006
-4.00,1.16,-13.90,-0.84,-3.28,4.79,-3.92,-25.36,-49.77,41041
0.52,7.62,-12.60,0.27,-3.89,7.21,-11.55,-23.69,-50.09,41075
1.73,-8.23,-9.25,0.98,-1.53,12.86,-20.37,-15.61,-49.06,41109
-11.70,-7.40,-15.21,0.91,-0.09,5.70,-22.76,-9.54,-49.17,41143
4.85,-1.85,-10.03,0.37,0.21,0.85,-22.76,-7.18,-47.60,41177
3.31,6.89,-8.65,0.72,1.10,1.54,-22.70,-6.09,-46.30,41211
-0.64,0.90,-13.86,-0.11,1.72,1.68,-20.84,-4.03,-46.32,41246
-3.86,-0.73,-10.12,0.88,1.54,0.95,-18.65,-2.84,-47.72,41280
