ax,ay,az,gx,gy,gz,mx,my,mz,timestamp
1.74,-9.62,-1.65,0.12,-0.01,-0.13,-67.41,35.49,37.61,34179
1.39,-9.65,-1.63,0.18,-0.01,-0.15,-67.63,35.43,37.23,34213
1.53,-9.28,-1.48,0.19,-0.02,-0.08,-67.76,35.21,37.64,34248
2.03,-9.21,-1.40,-0.07,0.11,0.07,-67.82,35.49,36.88,34282
3.14,-8.54,-1.86,-0.43,0.21,0.22,-67.22,35.14,36.89,34316
5.18,-7.32,-0.41,-2.41,0.70,-0.22,-67.68,32.04,38.29,34350
-1.27,-9.07,-4.84,-3.57,1.22,0.33,-70.42,23.09,39.65,34384
2.93,-8.12,-5.10,-2.33,0.89,0.01,-73.06,18.94,39.18,34418
1.72,-8.03,-5.67,-1.69,1.67,0.32,-75.59,16.00,35.74,34453
1.19,-7.97,-5.10,-1.62,1.82,0.37,-79.14,14.09,31.54,34487
0.50,-7.55,-6.22,-1.30,1.76,0.44,-81.44,12.79,27.48,34521
-0.42,-9.75,-4.26,-0.80,0.82,0.07,-83.48,12.19,24.33,34555
1.35,-9.24,-4.23,-0.38,0.41,-0.43,-84.67,10.41,22.79,34589
0.40,-10.15,-4.18,-0.23,0.38,-0.26,-85.56,9.47,21.56,34624
0.37,-7.87,-4.93,-0.11,0.47,0.11,-86.10,9.59,20.39,34658
1.00,-8.88,-4.81,-0.20,0.62,0.50,-86.76,10.79,19.29,34692
0.56,-8.81,-5.47,-0.34,0.31,0.30,-86.96,11.96,18.58,34726
1.06,-8.91,-5.66,-0.23,0.24,0.72,-86.95,14.62,18.58,34760
2.32,-7.06,-6.20,-0.06,-0.10,0.46,-86.52,17.14,18.82,34794
3.43,-5.53,-8.07,0.22,0.08,0.20,-85.98,18.72,19.96,34829
4.07,-6.22,-6.90,0.12,0.23,-0.01,-86.17,19.34,19.31,34863
4.07,-6.43,-5.54,0.16,0.28,-0.24,-86.55,19.67,18.65,34897
4.81,-6.71,-4.93,0.16,0.30,-0.35,-86.69,19.20,18.58,34931
4.53,-6.40,-5.05,0.13,0.37,-0.51,-87.17,18.34,16.91,34965
3.74,-7.04,-5.71,0.12,0.43,-0.54,-87.96,16.97,15.54,35000
3.08,-7.77,-4.88,0.15,0.52,-0.52,-89.49,15.71,14.51,35034
2.90,-8.01,-5.13,0.23,0.60,-0.51,-89.94,14.72,12.20,35068
2.36,-9.19,-5.49,0.16,0.59,-0.16,-90.53,14.51,9.76,35102
1.13,-7.82,-5.91,0.17,0.62,-0.38,-91.38,13.46,8.51,35136
-0.56,-8.41,-7.68,0.10,0.90,-0.49,-91.64,12.99,6.07,35170
-4.30,-9.07,-13.44,-0.53,1.48,-0.11,-92.60,12.16,2.24,35205
-2.11,-13.39,-10.39,-0.46,1.46,0.15,-92.68,13.01,-0.99,35239
-1.31,-11.19,-11.24,-0.06,2.79,1.21,-92.40,17.63,-7.40,35273
14.84,2.96,-6.75,-0.10,3.46,-0.16,-90.95,20.71,-14.62,35307
-3.15,-9.57,-7.23,0.33,-0.20,-1.13,-89.58,17.96,-12.82,35341
0.64,-3.55,-5.14,0.79,-3.30,-3.74,-88.51,6.42,0.31,35375
5.96,-1.39,-4.13,0.68,-3.96,-2.98,-83.37,-2.06,14.09,35410
5.52,-1.42,-5.02,0.35,-2.97,-1.00,-76.10,-5.26,29.29,35444
5.45,-2.57,-3.99,-0.15,-1.67,1.16,-68.59,-3.43,32.78,35478
2.75,-4.84,-3.14,-0.61,-1.52,1.88,-62.55,-0.77,37.14,35512
3.11,-6.02,-3.89,-0.98,-2.63,1.20,-53.10,-0.03,43.42,35546
4.86,-6.00,-6.39,-1.15,-3.25,0.81,-42.40,-2.50,47.57,35581
6.99,-5.53,-7.69,-1.40,-2.52,1.31,-32.83,-4.98,51.01,35615
9.13,-7.59,-6.61,-2.44,-0.30,2.69,-27.57,-9.38,50.82,35649
13.91,6.38,-10.76,-2.09,1.14,2.76,-28.11,-12.99,47.31,35683
-2.54,-21.41,-4.09,-2.35,2.80,3.69,-36.85,-16.25,41.49,35717
6.94,-20.17,-2.55,0.17,0.10,-0.80,-34.68,-17.36,40.31,35751
3.64,-1.75,-5.64,0.14,0.30,-0.59,-34.58,-17.77,39.39,35786
-0.21,-8.26,-10.18,-1.10,-0.30,1.23,-33.94,-18.59,39.77,35820
3.00,-5.07,-8.72,0.07,0.35,0.42,-34.17,-17.98,39.45,35854
2.79,-4.29,-9.46,0.61,0.40,0.56,-34.84,-16.27,39.43,35888
0.75,-3.07,-8.55,1.06,0.42,1.28,-35.36,-12.44,39.11,35922
2.36,-3.26,-8.14,1.25,0.27,0.96,-35.38,-10.00,38.63,35957
3.49,-2.54,-7.69,1.13,0.37,0.50,-36.22,-7.15,38.18,35991
2.56,-3.78,-7.35,0.67,0.63,0.22,-36.29,-5.39,37.47,36025
0.77,-4.68,-7.93,0.34,0.80,-0.04,-37.28,-4.40,36.10,36059
0.09,-5.12,-8.29,0.23,0.94,-0.14,-38.53,-4.33,34.05,36093
-0.14,-3.80,-8.78,0.12,1.91,0.92,-41.27,-3.22,32.65,36127
-1.86,-12.36,-6.04,-0.18,1.49,0.53,-43.28,-1.78,28.92,36162
0.12,-8.77,-13.59,0.60,2.02,-0.14,-45.41,-1.01,26.00,36196
4.43,-11.08,-16.99,0.58,2.00,0.44,-47.22,0.20,22.61,36230
1.02,-4.28,-18.20,-0.73,2.69,1.42,-48.09,2.63,18.96,36264
12.94,0.36,-3.32,2.08,2.37,1.19,-49.02,5.61,13.33,36298
0.93,-4.43,-7.39,-1.38,0.45,-2.44,-47.59,2.37,12.01,36333
-0.38,-3.10,-1.95,1.40,-0.85,-3.80,-44.46,-4.53,12.38,36367
3.59,0.17,-3.50,0.70,-1.48,-3.09,-40.18,-8.97,14.54,36401
6.32,-1.81,-4.29,-0.16,-1.20,-1.55,-36.19,-12.42,16.56,36435
6.22,-3.50,-4.69,-0.08,-1.17,-1.26,-31.57,-13.86,16.91,36469
4.75,-5.09,-4.74,-0.02,-1.52,-1.62,-27.55,-15.23,17.11,36503
7.50,-3.64,-5.02,0.14,-1.79,-1.98,-21.86,-17.26,17.74,36538
7.69,-3.25,-6.09,-0.08,-1.49,-1.97,-17.11,-18.68,18.36,36572
6.96,-2.94,-5.25,0.10,-1.10,-1.72,-13.53,-19.57,17.99,36606
7.48,-2.73,-5.18,-0.03,-1.09,-1.66,-10.41,-20.27,17.38,36640
6.94,-2.28,-5.96,-0.32,-0.76,-1.21,-6.99,-20.80,16.84,36674
7.31,-2.59,-6.41,-0.52,-0.45,-0.62,-5.04,-21.28,15.68,36708
6.16,-2.91,-6.59,-0.55,-0.17,-0.05,-3.73,-21.89,14.91,36743
5.90,-1.69,-7.51,-0.76,0.28,0.56,-3.30,-22.43,14.62,36777
7.56,-4.11,-5.69,-1.09,1.29,1.56,-4.22,-23.56,13.96,36811
9.06,2.19,-13.04,-1.12,1.62,1.00,-5.58,-24.54,13.17,36845
3.08,-3.33,-5.30,0.17,0.50,1.83,-7.07,-24.50,11.84,36879
2.19,-6.26,-10.01,-0.51,0.53,1.37,-7.67,-24.80,12.42,36914
1.51,-7.07,-9.06,0.89,0.16,0.13,-7.79,-24.31,13.34,36948
4.62,-3.68,-7.10,2.10,-0.21,-1.95,-6.83,-22.95,15.77,36982
2.81,-2.46,-9.75,2.73,-0.63,-2.64,-4.71,-20.48,18.44,37016
3.17,1.63,-10.54,3.38,-1.30,-3.45,-1.20,-16.98,20.17,37050
0.49,2.96,-10.81,3.27,-2.00,-3.20,2.81,-11.21,22.45,37084
0.97,-1.51,-10.09,3.09,-2.52,-3.27,6.68,-5.63,22.04,37119
1.68,-0.55,-11.78,2.91,-2.20,-4.20,10.48,1.80,20.43,37153
2.73,4.02,-13.61,3.04,-1.89,-4.53,12.06,8.10,17.51,37187
3.07,8.91,-11.25,2.10,-1.43,-3.97,11.53,13.72,13.72,37221
2.11,5.92,-9.15,1.41,-1.13,-3.06,10.04,17.41,9.70,37255
3.39,1.18,-8.67,1.34,-1.43,-2.79,8.93,19.29,6.75,37290
3.44,1.12,-7.37,1.42,-1.56,-3.14,7.79,21.28,3.68,37324
4.01,0.41,-10.13,1.41,-1.67,-3.21,5.80,22.90,-0.80,37358
4.49,1.86,-10.45,1.34,-1.42,-3.41,3.55,23.79,-3.68,37392
5.68,3.88,-9.64,1.33,-0.93,-3.92,-0.89,23.97,-6.33,37426
5.93,4.45,-9.52,1.27,-0.32,-4.10,-4.69,23.76,-9.44,37460
6.71,3.75,-6.31,1.14,-0.24,-3.85,-8.49,22.29,-10.80,37495
4.54,-0.70,-6.82,1.05,-0.67,-3.15,-11.93,21.02,-12.83,37529
4.03,-6.08,-8.86,1.33,-0.92,-3.84,-14.73,19.94,-14.43,37563
3.03,-5.21,-8.51,2.01,-0.90,-4.85,-17.55,17.09,-15.86,37597
2.36,0.25,-8.38,2.41,-1.12,-5.06,-21.78,13.36,-19.04,37631
2.81,1.42,-10.94,2.19,-1.20,-4.76,-24.63,9.32,-19.95,37666
1.57,2.68,-12.32,2.36,-0.71,-5.66,-26.82,3.41,-20.94,37700
1.97,4.95,-5.41,2.64,-0.17,-5.83,-28.31,-3.65,-21.95,37734
3.23,-0.88,-8.14,2.43,-0.49,-5.38,-28.19,-8.92,-23.03,37768
5.07,-0.79,-10.23,2.32,-0.12,-5.30,-27.45,-15.68,-22.03,37802
4.04,1.62,-5.26,2.24,0.28,-4.87,-25.50,-20.48,-22.43,37836
3.53,-0.49,-8.09,2.12,0.16,-4.57,-22.99,-25.53,-21.97,37871
4.05,-2.22,-9.08,2.22,0.16,-4.25,-19.66,-28.53,-20.97,37905
2.53,-1.94,-7.35,2.28,0.23,-4.07,-15.96,-31.22,-19.06,37939
0.76,-1.86,-8.26,2.28,0.13,-3.72,-12.26,-33.65,-18.21,37973
-0.17,-2.64,-12.09,2.26,-0.05,-2.98,-9.89,-34.52,-14.91,38007
1.18,-2.44,-11.18,2.35,0.03,-2.90,-7.59,-35.72,-13.55,38041
1.78,-4.16,-10.57,2.90,-0.07,-3.37,-4.37,-35.57,-10.23,38076
0.26,-2.90,-13.77,4.16,-0.22,-4.88,-0.60,-35.06,-6.08,38110
2.57,-0.30,-15.99,5.10,-0.54,-5.94,5.58,-32.17,0.61,38144
-2.26,4.38,-15.50,5.62,-0.95,-6.21,10.77,-27.11,5.01,38178
-4.15,6.14,-8.56,5.79,-1.79,-7.18,15.16,-19.22,8.14,38212
-2.56,2.10,-11.23,4.49,-2.45,-7.29,21.18,-8.93,7.61,38247
-4.77,2.43,-12.38,3.54,-2.14,-5.40,23.43,-0.88,4.62,38281
2.32,5.97,-10.53,2.33,-2.33,-2.97,24.66,4.82,0.95,38315
8.50,0.14,-5.28,1.21,-1.33,-2.23,25.40,9.24,-2.67,38349
7.38,-0.62,-7.56,1.10,-1.09,-2.28,25.40,11.71,-6.59,38383
0.46,-2.44,-7.94,1.44,-1.29,-2.87,24.03,15.86,-10.68,38417
0.61,0.20,-13.55,1.11,-1.61,-2.06,23.33,17.99,-14.32,38452
-1.07,2.25,-14.40,1.28,-1.39,-2.44,21.97,19.56,-19.06,38486
2.73,2.64,-8.44,0.99,-0.84,-2.05,20.30,20.74,-24.33,38520
1.38,-3.08,-9.69,1.34,-2.09,-1.71,18.84,20.78,-29.44,38554
3.07,3.15,-11.02,1.09,-1.31,-2.43,16.87,19.88,-36.31,38588
2.27,2.92,-11.05,1.35,-1.60,-2.75,13.29,18.82,-41.19,38623
5.70,-0.73,-10.45,0.67,-1.23,-2.05,10.23,17.83,-44.43,38657
-0.49,3.40,-12.96,0.90,-0.43,-3.14,7.03,15.39,-47.57,38691
6.06,4.45,-8.06,1.50,-0.58,-4.45,3.58,13.02,-50.89,38725
7.09,-2.50,-15.99,1.24,0.43,-5.16,0.58,11.08,-53.20,38759
0.03,6.73,-8.05,1.66,1.42,-5.90,-0.77,6.94,-55.19,38793
3.04,-0.87,-10.29,1.96,0.15,-4.29,-1.75,3.61,-55.96,38828
0.40,3.05,-9.28,3.60,0.15,-6.52,-2.84,-2.29,-57.22,38862
2.62,7.98,-1.97,3.26,-0.14,-6.52,-2.91,-7.40,-57.64,38896
4.95,-3.96,-11.49,3.74,-0.21,-5.85,-2.88,-11.87,-57.73,38930
1.82,1.55,-10.20,4.30,-0.33,-6.19,-0.45,-18.20,-56.61,38964
2.01,1.17,-10.33,3.84,-0.53,-5.07,0.53,-22.83,-54.41,38999
1.40,0.76,-12.15,4.15,-0.77,-4.90,2.02,-26.56,-52.47,39033
-0.37,3.41,-13.41,5.08,-1.08,-5.37,3.51,-32.37,-47.62,39067
-1.76,1.58,-15.53,6.05,-1.59,-5.89,5.42,-36.80,-42.50,39101
-1.76,4.63,-16.39,7.25,-2.29,-7.15,9.38,-40.81,-32.37,39135
-1.52,5.61,-13.90,7.15,-2.36,-7.04,14.82,-41.82,-24.09,39169
-0.20,4.15,-12.47,6.26,-2.59,-6.98,20.89,-38.28,-17.36,39204
0.80,4.89,-14.90,5.42,-2.42,-6.45,27.99,-32.32,-11.37,39238
3.86,5.59,-12.25,4.74,-2.32,-5.54,32.94,-25.12,-9.54,39272
-1.00,3.35,-11.67,3.65,-2.21,-4.10,36.60,-18.33,-11.15,39306
-0.06,1.89,-11.23,3.63,-2.43,-3.72,39.17,-10.77,-14.29,39340
0.17,3.37,-10.46,3.24,-2.41,-3.75,40.03,-4.74,-20.20,39375
4.37,1.58,-12.35,2.76,-2.65,-3.69,39.16,1.20,-28.06,39409
3.51,4.17,-12.42,2.56,-1.72,-3.90,36.73,5.10,-34.70,39443
5.18,6.36,-11.18,2.22,-1.13,-4.44,33.43,8.59,-39.92,39477
6.26,6.42,-9.73,1.95,-0.65,-4.42,28.27,10.84,-45.53,39511
7.31,4.27,-9.08,1.73,-0.70,-4.22,24.09,11.75,-49.87,39545
2.90,0.42,-11.81,1.63,-0.93,-3.26,20.94,10.67,-53.04,39580
-6.22,-1.28,-8.55,1.23,-1.22,-2.15,17.10,9.56,-56.72,39614
-4.31,-7.26,-10.49,1.46,-1.80,-2.96,12.85,7.09,-59.08,39648
4.56,-1.40,-6.08,1.58,-2.40,-2.27,7.70,2.32,-62.64,39682
5.68,-0.23,-6.58,0.76,-2.46,-0.31,2.75,-2.16,-64.16,39716
3.50,4.23,-11.81,0.16,-2.05,0.35,-0.26,-4.82,-64.34,39750
4.37,2.05,-12.22,0.22,-0.51,-1.08,-1.83,-7.48,-64.73,39785
8.25,2.63,-11.52,0.61,0.07,-2.93,-1.39,-11.14,-65.49,39819
12.43,3.81,-8.98,1.51,1.15,-5.48,1.11,-14.98,-65.46,39853
6.77,0.54,-6.60,0.92,0.65,-3.46,3.95,-17.22,-65.23,39887
-2.97,-1.73,-9.05,0.64,0.05,-1.98,5.38,-18.71,-65.11,39921
0.10,-7.43,-8.59,0.82,-0.85,-1.74,6.37,-20.68,-64.63,39956
0.94,-4.87,-11.88,1.72,-1.48,-3.47,6.30,-23.53,-64.29,39990
2.66,2.67,-9.95,2.59,-1.24,-4.66,7.54,-27.42,-63.36,40024
6.18,6.12,-9.31,1.82,-0.84,-3.85,10.44,-30.14,-61.63,40058
4.43,1.04,-10.76,1.55,-0.49,-3.38,12.85,-31.67,-60.68,40092
4.69,0.88,-5.47,1.70,-0.28,-3.92,16.72,-32.71,-59.40,40126
3.20,-2.48,-10.24,1.90,-0.58,-4.01,19.66,-32.55,-59.18,40161
4.31,0.30,-9.31,2.44,-0.33,-4.84,23.03,-32.58,-57.28,40195
3.07,3.29,-7.98,2.10,-0.12,-4.06,26.47,-31.60,-55.38,40229
3.32,-1.53,-10.99,2.10,0.12,-3.46,28.62,-31.01,-54.79,40263
2.58,2.03,-6.00,2.22,0.18,-3.72,31.19,-30.20,-52.60,40297
4.88,-3.07,-9.75,2.43,-0.39,-3.14,33.34,-29.38,-51.65,40332
4.56,-0.29,-5.83,2.96,-0.17,-3.75,34.51,-28.90,-50.76,40366
2.04,-1.16,-8.77,2.71,-0.40,-3.20,35.85,-27.87,-49.11,40400
3.85,-4.79,-8.18,3.12,-0.39,-3.62,37.17,-26.69,-47.78,40434
0.06,-1.74,-10.76,3.29,-0.38,-3.71,38.02,-26.22,-46.96,40468
-4.17,-3.07,-16.78,3.87,-0.90,-3.78,38.13,-26.03,-45.38,40502
-0.68,0.40,-15.80,5.27,-1.15,-4.61,38.25,-25.91,-43.42,40537
-1.71,0.47,-20.96,6.14,-1.69,-4.93,39.40,-25.84,-39.37,40571
-3.35,2.59,-22.52,7.14,-2.67,-5.65,40.16,-24.03,-36.83,40605
-4.71,13.38,-17.52,7.23,-2.73,-7.82,41.90,-18.23,-34.89,40639
0.58,12.17,-18.76,5.71,-3.58,-7.64,42.46,-7.45,-39.90,40673
-1.30,2.91,-16.15,4.33,-2.57,-5.79,39.71,-0.12,-46.61,40708
3.35,10.72,-13.35,3.15,-2.40,-3.98,34.90,3.48,-54.79,40742
3.07,3.75,-12.04,2.32,-2.93,-2.19,28.56,4.38,-63.96,40776
2.56,-2.18,-7.14,2.59,-3.14,-3.01,20.94,2.98,-71.78,40810
9.12,7.45,-8.97,2.23,-3.03,-2.73,9.46,-2.69,-78.68,40844
7.83,6.87,-8.20,1.39,-1.96,-2.07,1.59,-5.74,-81.51,40878
2.14,0.27,-10.18,0.93,-1.31,-1.97,-4.84,-9.21,-83.40,40913
3.63,-0.69,-13.14,1.25,-1.04,-3.00,-9.97,-14.59,-83.10,40947
1.15,1.16,-13.18,1.77,-0.61,-4.48,-12.70,-20.96,-83.08,40981
0.03,3.27,-13.03,1.86,-0.75,-4.33,-13.78,-28.34,-80.11,41015
0.97,2.93,-12.50,1.78,-1.04,-3.86,-14.26,-37.17,-76.62,41049
5.46,2.33,-12.29,2.13,-0.88,-4.76,-12.26,-44.87,-71.48,41083
4.55,3.28,-8.76,2.25,-1.07,-4.77,-7.23,-52.46,-64.94,41118
5.30,4.94,-10.26,2.10,-1.08,-5.28,-1.18,-56.69,-59.32,41152
2.38,5.49,-7.77,1.81,-0.89,-4.29,5.29,-59.06,-53.99,41186
1.58,1.05,-4.51,1.06,-1.09,-2.68,10.73,-59.97,-51.53,41220
2.11,-5.51,-10.69,0.74,-1.51,-2.55,12.77,-59.56,-49.58,41254
2.13,2.01,-9.05,0.52,-1.72,-0.99,14.91,-59.27,-47.34,41289
2.70,1.74,-8.88,-0.00,-1.90,0.87,13.01,-59.09,-47.02,41323
4.10,-3.12,-9.87,-0.43,-1.71,1.40,9.65,-58.70,-47.75,41357
2.08,-2.03,-10.52,0.04,-1.14,0.02,8.89,-58.39,-46.76,41391
3.04,0.74,-10.69,0.51,-0.80,-1.80,11.22,-57.80,-45.94,41425
3.02,1.07,-13.23,0.94,-0.03,-3.68,16.08,-56.50,-44.12,41459
6.28,4.63,-7.95,1.51,0.37,-5.07,25.74,-53.48,-40.98,41494
4.66,1.44,-13.38,1.63,0.76,-5.03,33.22,-49.75,-37.96,41528
3.59,0.95,-5.28,1.88,0.58,-4.84,40.95,-43.26,-33.97,41562
1.49,-2.42,-8.01,1.94,0.01,-3.97,44.39,-38.95,-33.06,41596
2.29,-1.74,-9.97,3.06,-0.09,-5.43,47.94,-33.13,-31.18,41630
1.96,2.44,-8.99,3.77,-0.22,-6.38,52.53,-22.83,-29.35,41665
-0.67,3.98,-12.75,4.30,-0.11,-7.13,54.17,-12.67,-29.55,41699
3.56,0.91,-8.60,5.10,-0.03,-7.31,53.83,-2.13,-30.08,41733
4.84,-0.27,-7.58,5.39,-0.24,-7.07,50.32,8.29,-33.75,41767
3.25,3.27,-8.50,4.70,-0.32,-6.01,46.76,14.43,-37.31,41801
3.01,2.36,-9.12,3.38,-0.41,-4.11,41.42,18.68,-42.21,41835
1.72,1.65,-12.29,3.40,-0.29,-3.50,38.59,20.29,-45.25,41870
4.68,2.38,-9.32,4.11,-0.61,-3.76,34.74,21.51,-49.47,41904
4.07,-0.18,-14.60,5.08,-1.10,-4.13,29.26,21.22,-55.92,41938
-2.71,1.24,-13.42,6.03,-1.92,-5.45,22.30,18.44,-62.66,41972
-6.52,-7.57,-19.39,5.62,-3.07,-8.22,8.07,14.51,-69.67,42006
-11.98,-2.78,-17.14,5.86,-2.55,-7.40,-3.16,7.80,-74.12,42041
-5.60,6.84,-14.23,4.22,-2.98,-5.07,-13.71,0.04,-74.48,42075
6.64,11.27,-8.88,2.27,-3.19,-1.41,-24.69,-7.31,-72.01,42109
3.78,4.25,-9.25,1.47,-2.74,0.12,-32.20,-9.11,-67.07,42143
8.37,0.39,-8.98,1.85,-1.59,-3.26,-36.17,-13.64,-62.67,42177
4.40,4.59,-9.97,2.14,-1.10,-4.51,-37.47,-23.41,-58.51,42211
-0.96,6.44,-16.12,2.33,-0.84,-4.98,-36.29,-32.21,-54.53,42246
2.73,5.51,-12.82,2.28,0.04,-5.31,-29.82,-42.91,-50.03,42280
0.09,4.29,-7.39,1.97,-0.78,-3.93,-24.99,-48.63,-44.40,42314
-1.90,-0.65,-10.12,1.83,-1.62,-2.37,-21.75,-51.99,-38.79,42348
-1.12,-1.45,-14.01,2.20,-2.17,-3.14,-17.30,-55.92,-32.17,42382
0.36,5.42,-8.88,2.59,-1.62,-4.67,-9.35,-58.30,-24.45,42416
4.81,6.80,-10.08,2.98,-1.53,-6.51,1.61,-58.30,-18.18,42451
6.11,9.33,-12.81,2.41,-0.23,-6.47,15.87,-54.52,-11.55,42485
0.34,9.47,-9.32,1.61,0.00,-4.36,23.50,-50.77,-9.18,42519
0.00,-4.41,-9.81,1.72,-1.11,-3.10,29.32,-45.78,-7.91,42553
6.44,-1.45,-9.83,2.90,-1.53,-4.72,34.54,-39.77,-7.61,42587
6.51,5.50,-5.86,2.97,-1.46,-4.82,39.70,-31.95,-7.09,42622
5.73,5.35,-12.48,1.77,-1.04,-2.82,43.19,-25.65,-7.61,42656
8.22,6.60,-8.02,1.16,0.56,-2.65,44.55,-21.38,-7.60,42690
2.98,-1.25,-9.13,1.06,0.71,-2.06,44.94,-17.98,-6.23,42724
1.33,-7.59,-10.54,2.70,0.49,-3.57,45.38,-12.57,-5.44,42758
1.04,0.28,-10.62,4.25,-0.03,-4.97,45.76,-4.37,-5.66,42792
0.93,3.57,-10.49,4.95,-0.54,-5.35,44.12,6.17,-8.17,42827
-0.14,-0.61,-14.53,5.22,-0.67,-5.18,41.41,13.18,-12.34,42861
2.22,1.58,-15.53,6.31,-1.00,-5.95,37.40,20.62,-18.59,42895
3.09,3.91,-15.92,6.39,-1.56,-5.42,31.03,26.10,-27.90,42929
-0.22,3.75,-13.87,5.55,-1.83,-4.24,26.12,27.93,-34.57,42963
-3.86,7.08,-18.90,5.93,-2.61,-5.24,19.96,28.65,-44.04,42998
-9.39,0.25,-20.56,5.52,-3.20,-6.67,8.70,28.28,-50.54,43032
0.31,6.21,-15.12,5.98,-2.94,-7.38,-2.82,25.18,-57.51,43066
9.12,16.25,-12.18,3.96,-3.16,-4.13,-13.53,18.87,-63.40,43100
10.62,9.09,-9.98,2.23,-3.49,-0.10,-19.66,16.43,-63.77,43134
13.40,-0.58,-8.87,1.75,-2.04,-1.18,-24.47,14.12,-65.42,43168
5.02,3.45,-6.17,2.32,-0.59,-3.28,-28.33,7.92,-65.92,43203
-0.77,3.89,-10.66,2.36,-0.94,-3.24,-31.57,1.53,-66.54,43237
2.19,0.51,-14.91,2.37,-0.76,-3.78,-33.95,-7.85,-65.96,43271
0.27,3.57,-14.87,2.85,-0.43,-4.34,-34.03,-17.30,-64.60,43305
-1.68,-0.35,-15.14,3.31,-1.75,-3.69,-34.22,-25.81,-61.47,43339
-4.07,-1.88,-15.49,3.77,-2.50,-4.49,-34.00,-37.14,-53.79,43374
0.64,6.82,-13.20,3.78,-2.42,-5.95,-31.16,-47.87,-46.30,43408
4.67,10.52,-12.39,3.30,-2.47,-5.38,-25.59,-56.18,-36.98,43442
7.28,9.89,-11.79,2.29,-2.02,-4.42,-17.60,-62.13,-28.14,43476
8.32,6.62,-6.65,1.24,-1.20,-3.07,-12.60,-64.15,-22.35,43510
2.00,1.34,-3.52,0.87,-1.51,-1.32,-8.73,-64.82,-16.43,43544
1.18,-3.09,-12.62,1.08,-1.98,-2.73,-4.75,-64.06,-11.74,43579
2.51,4.69,-7.05,0.87,-1.77,-1.76,1.11,-63.39,-6.23,43613
4.52,3.03,-9.41,0.21,-2.00,-0.08,4.17,-61.50,-1.93,43647
1.98,-2.63,-10.86,-0.41,-1.30,1.28,4.68,-60.00,-0.16,43681
2.42,-2.34,-10.36,0.41,-1.24,-0.90,7.23,-58.37,1.52,43715
6.54,2.59,-9.56,0.83,-0.83,-2.37,14.83,-54.50,3.67,43750
8.06,1.86,-10.87,1.38,0.13,-3.97,21.60,-49.78,5.35,43784
4.04,2.92,-6.57,1.24,0.28,-3.36,28.46,-42.98,7.92,43818
2.18,1.35,-8.81,0.99,-0.92,-2.11,32.83,-38.70,7.18,43852
7.95,-2.29,-11.91,2.05,-0.37,-4.58,37.33,-32.36,6.55,43886
4.68,2.35,-8.71,2.41,0.46,-5.82,41.29,-20.93,6.68,43920
2.40,2.74,-10.05,1.89,0.13,-4.14,43.58,-12.31,5.77,43955
4.80,0.96,-7.04,2.06,0.20,-4.18,43.34,-5.29,4.90,43989
3.62,0.36,-7.53,2.01,0.07,-3.86,41.79,3.07,3.01,44023
3.21,0.90,-10.51,3.00,0.12,-4.67,40.18,9.50,0.77,44057
1.72,2.92,-6.38,2.05,0.00,-2.92,37.20,16.65,-1.37,44091
3.51,-3.87,-7.90,1.81,-0.38,-2.26,35.25,20.29,-3.84,44125
3.49,-2.57,-8.20,3.12,-0.95,-3.73,32.68,24.13,-7.63,44160
3.66,0.47,-6.52,3.61,-1.16,-3.98,27.33,29.20,-14.48,44194
8.12,0.19,-8.06,3.35,-1.08,-3.61,23.49,31.82,-19.23,44228
4.07,-2.50,-8.10,2.83,-0.60,-3.15,18.34,33.62,-24.89,44262
2.51,-5.44,-11.36,3.10,-0.55,-3.45,13.93,34.00,-28.79,44296
0.80,0.48,-12.41,3.62,-0.21,-3.92,8.56,33.92,-33.70,44331
1.56,0.78,-16.55,4.11,-0.42,-3.56,2.88,32.68,-38.92,44365
3.13,-0.01,-16.37,5.09,-1.17,-3.86,-1.37,30.30,-43.53,44399
3.22,-3.21,-15.41,5.69,-1.82,-4.26,-7.72,26.32,-47.92,44433
-8.31,6.09,-12.43,5.85,-2.39,-6.22,-15.62,20.71,-52.03,44467
-6.41,-3.86,-22.26,5.57,-3.30,-8.50,-25.46,13.21,-53.92,44501
-20.84,-1.19,-22.24,5.14,-3.04,-5.46,-34.92,2.95,-53.17,44536
-0.26,13.26,-15.57,3.89,-3.45,-4.85,-41.90,-5.35,-50.00,44570
0.14,7.24,-13.14,2.49,-3.51,-1.73,-48.87,-8.97,-43.67,44604
3.70,3.90,-8.41,1.66,-3.19,-1.07,-54.95,-11.40,-33.51,44638
9.23,3.31,-5.87,1.86,-2.12,-2.33,-57.64,-15.48,-24.70,44672
5.91,8.43,-12.64,1.64,-0.50,-3.79,-57.29,-21.10,-17.85,44707
6.66,9.25,-12.56,1.20,0.63,-3.98,-53.26,-29.44,-15.67,44741
3.90,3.60,-11.62,0.89,0.26,-2.65,-49.68,-33.84,-12.83,44775
-0.21,-4.46,-15.40,1.65,-0.96,-2.55,-43.79,-37.59,-7.34,44809
-0.55,-1.50,-11.48,1.91,-1.22,-2.83,-37.09,-40.03,-2.66,44843
0.78,3.35,-5.13,1.78,-0.98,-3.31,-29.95,-41.95,0.56,44877
2.51,3.17,-7.24,1.66,-1.99,-2.91,-20.53,-43.29,5.04,44912
4.67,4.39,-8.86,1.21,-1.38,-3.12,-13.07,-42.90,8.05,44946
5.63,3.78,-7.11,0.69,-0.80,-2.21,-6.52,-42.46,9.30,44980
-0.71,1.37,-9.28,0.07,-1.03,-0.34,-1.52,-41.93,9.15,45014
0.27,-3.53,-10.89,0.14,-1.40,-0.17,1.83,-41.32,8.46,45048
2.31,-3.14,-9.87,0.45,-1.69,-0.50,6.53,-41.11,7.57,45083
6.71,1.81,-8.78,0.93,-0.80,-2.31,11.28,-40.15,6.78,45117
4.92,1.92,-10.75,1.30,-0.17,-3.97,15.32,-38.19,5.85,45151
5.32,4.83,-9.10,1.49,0.27,-4.85,22.17,-32.97,5.50,45185
2.50,3.88,-13.84,1.39,0.03,-4.00,25.45,-29.19,5.99,45219
6.79,1.87,-13.05,1.56,0.68,-4.62,28.75,-23.74,6.71,45253
3.71,8.01,-4.89,1.64,0.91,-4.07,29.96,-18.63,7.07,45288
3.38,4.76,-2.85,0.97,0.47,-2.63,31.22,-14.67,7.56,45322
4.71,-6.45,-6.32,1.57,-0.16,-3.13,31.83,-10.70,7.28,45356
3.57,-1.75,-9.35,2.61,-0.36,-5.06,32.26,-4.08,6.50,45390
3.62,3.82,-10.54,3.01,-0.27,-5.23,31.34,2.91,4.74,45424
2.17,1.89,-10.92,3.36,-0.21,-4.89,28.49,11.15,1.84,45458
2.21,-1.23,-8.87,3.59,-0.52,-4.84,26.15,16.98,-1.59,45493
2.77,-1.62,-8.88,3.96,-0.85,-5.20,20.65,23.56,-7.54,45527
2.91,1.76,-8.42,4.85,-0.90,-5.86,14.98,28.06,-13.77,45561
1.79,1.67,-11.99,5.29,-0.69,-5.95,7.83,30.24,-19.91,45595
2.36,2.52,-9.59,5.59,-0.19,-6.55,-2.57,29.76,-28.73,45629
1.06,3.08,-12.52,5.25,-0.01,-6.01,-9.97,26.24,-34.92,45664
0.73,3.70,-14.17,5.22,-0.23,-5.20,-15.70,20.81,-39.59,45698
-1.30,0.37,-16.47,5.50,-1.31,-4.32,-21.28,13.48,-43.06,45732
-3.71,-1.77,-18.85,6.71,-2.75,-4.97,-26.35,5.16,-43.31,45766
-10.65,-1.68,-19.03,7.25,-3.88,-6.91,-32.39,-7.16,-38.45,45800
-11.10,9.29,-25.13,7.07,-4.43,-10.20,-33.81,-20.30,-30.17,45834
-3.45,15.92,-22.91,6.16,-4.12,-9.40,-29.66,-31.25,-21.43,45869
-4.83,16.99,-16.66,3.77,-3.72,-4.99,-23.18,-36.83,-12.96,45903
1.96,11.17,-10.81,2.12,-2.98,-2.28,-19.54,-38.45,-10.10,45937
6.29,1.43,-12.56,1.62,-2.48,-2.76,-16.19,-40.12,-6.49,45971
2.09,2.39,-9.65,2.18,-1.58,-4.59,-10.45,-41.06,-4.09,46005
-6.42,6.91,-12.78,2.23,-2.14,-4.35,-4.91,-41.30,-1.10,46040
2.41,9.83,-13.32,2.00,-1.80,-4.91,2.51,-40.12,2.16,46074
1.60,8.30,-12.03,1.15,-1.07,-2.84,7.22,-39.33,2.85,46108
8.51,-2.13,-10.65,1.13,-1.11,-3.06,11.14,-37.81,3.22,46142
6.76,-2.06,-18.04,1.79,0.12,-4.94,16.81,-35.00,5.38,46176
3.55,12.19,-4.72,2.29,-0.21,-4.98,21.65,-29.60,5.88,46210
5.34,2.02,-15.94,1.88,-0.55,-3.60,25.88,-24.36,7.06,46245
6.34,4.82,-10.75,2.58,0.72,-5.21,27.74,-18.65,8.33,46279
2.68,6.67,-5.61,1.49,0.08,-2.98,29.14,-13.68,8.74,46313
6.25,-0.59,-8.77,1.61,-0.01,-3.23,29.76,-8.73,9.24,46347
7.85,1.78,-4.20,2.85,0.11,-4.97,29.42,-2.57,8.58,46381
4.82,3.10,-6.86,2.13,-0.06,-4.03,27.87,3.65,7.67,46416
6.26,-0.45,-7.41,2.32,-0.17,-3.75,25.88,10.52,6.18,46450
6.48,-1.40,-7.46,3.11,-0.46,-4.56,23.12,15.29,4.19,46484
8.84,2.42,-3.62,3.46,-0.51,-4.62,18.97,21.92,-0.06,46518
7.81,2.43,-5.02,2.78,-0.24,-3.69,14.75,25.23,-3.16,46552
4.53,-0.89,-6.47,2.36,-0.51,-2.64,11.28,27.52,-6.55,46586
2.66,-2.53,-10.59,1.78,-0.86,-2.29,7.97,29.55,-8.77,46621
5.96,-1.77,-7.96,2.06,-0.50,-2.68,5.22,30.97,-11.25,46655
6.54,2.40,-4.87,2.01,-0.26,-2.73,1.72,31.41,-14.35,46689
5.17,-1.03,-10.07,1.54,-0.38,-2.07,-1.56,30.99,-17.42,46723
3.16,-1.13,-8.58,1.94,0.01,-2.43,-4.82,31.28,-19.92,46757
4.69,-1.80,-9.86,1.90,-0.08,-2.03,-8.17,30.20,-22.67,46791
3.88,-4.32,-9.31,2.15,0.18,-2.22,-10.22,29.33,-25.53,46826
4.37,1.82,-5.30,2.28,0.20,-2.73,-13.11,27.87,-27.83,46860
4.32,5.51,-11.14,1.94,0.31,-2.42,-16.63,25.61,-30.97,46894
1.29,6.59,-11.42,2.72,0.57,-1.96,-18.15,23.33,-33.54,46928
5.80,-1.77,-19.93,5.84,-0.86,-2.96,-20.37,17.85,-37.33,46962
8.30,-11.98,-12.67,7.74,-1.61,-4.98,-25.46,9.57,-40.13,46997
-24.63,5.10,-19.59,8.37,-3.38,-11.65,-29.74,-3.49,-39.45,47031
-10.55,18.12,-4.80,6.51,-1.37,-8.42,-28.71,-22.65,-34.19,47065
-10.80,9.30,-16.52,3.46,-1.57,-6.08,-27.36,-28.18,-27.95,47099
4.14,3.55,-12.44,2.98,-2.89,-2.58,-25.88,-31.18,-22.49,47133
9.41,-4.27,-5.09,2.24,-2.47,-2.28,-23.47,-33.91,-14.88,47167
13.76,-3.25,-5.07,1.78,-1.97,-2.83,-20.53,-34.35,-10.36,47202
6.17,7.81,-14.00,2.46,-1.12,-5.06,-15.08,-34.79,-5.82,47236
7.49,16.21,-10.60,1.70,0.54,-5.25,-10.30,-35.69,-4.37,47270
7.21,9.12,-7.22,-0.03,0.80,-1.54,-7.86,-36.09,-4.36,47304
9.70,-6.50,-11.60,0.39,0.83,-1.31,-6.77,-35.85,-4.65,47338
3.38,-2.23,-11.49,2.46,0.82,-4.04,-3.70,-34.90,-3.49,47373
2.56,-0.77,-5.80,2.31,-0.01,-4.33,1.01,-33.53,-1.53,47407
-0.79,-8.34,-4.65,0.96,-0.43,-2.27,4.33,-31.45,-0.04,47441
-17.77,-2.27,-1.78,0.02,-2.11,0.36,5.17,-31.06,-1.61,47475
5.34,-0.04,-11.92,-0.94,-3.82,1.51,7.18,-30.74,-1.62,47509
9.90,3.03,-11.68,-0.44,-2.04,-0.15,8.64,-30.12,-2.19,47543
6.90,2.51,-11.18,0.56,-0.15,-2.79,10.89,-28.95,-2.54,47578
6.94,6.80,-4.80,0.99,0.11,-2.75,13.77,-26.50,-2.29,47612
11.46,2.29,-9.48,0.21,-0.33,-1.73,14.69,-25.52,-2.69,47646
4.64,2.78,-13.03,0.37,0.92,-2.28,15.10,-23.91,-2.40,47680
0.14,-1.02,-8.01,0.76,-0.17,-0.43,15.89,-22.70,-2.91,47714
4.22,-4.76,1.51,-0.20,-1.04,1.40,16.19,-22.64,-3.11,47749
-9.00,-12.71,-8.99,-0.66,-2.92,1.52,16.16,-23.40,-5.96,47783
-1.19,-2.78,-8.63,0.66,-1.50,-3.69,18.25,-21.31,-6.28,47817
-1.95,10.26,-12.02,0.74,-0.21,-5.17,20.13,-16.72,-6.45,47851
0.38,10.17,-15.18,-0.18,-0.76,-2.47,21.59,-13.58,-6.72,47885
4.80,-4.53,-13.72,-0.87,0.08,-0.76,21.29,-12.80,-6.90,47919
5.19,-8.40,-11.22,0.34,0.89,-3.36,21.44,-10.65,-7.15,47954
5.13,3.04,-10.88,1.35,1.18,-6.79,20.37,-5.74,-8.33,47988
9.63,8.19,-10.37,1.56,2.05,-7.23,18.69,-0.61,-7.28,48022
3.68,1.76,-14.23,1.07,3.47,-5.63,14.98,2.92,-7.61,48056
-1.33,2.90,0.84,1.97,2.88,-4.70,11.91,5.50,-7.69,48090
6.54,-0.57,-3.08,1.40,1.59,-4.79,8.92,7.26,-9.44,48125
6.59,-4.74,-6.53,4.16,1.54,-8.05,3.57,9.19,-13.20,48159
8.83,-0.66,-5.09,3.28,1.24,-7.26,-1.70,9.09,-15.55,48193
3.89,-6.08,-12.46,2.71,1.39,-6.14,-5.70,8.40,-19.23,48227
2.56,-4.08,-11.65,3.30,0.43,-6.03,-8.52,6.42,-21.70,48261
1.04,-8.43,-7.56,3.17,0.00,-5.93,-10.27,4.12,-25.12,48295
0.61,-5.12,-14.17,3.14,0.16,-5.45,-12.26,0.85,-26.89,48330
-0.85,1.47,-12.45,3.18,0.08,-4.48,-13.88,-2.69,-26.67,48364
-3.50,-2.34,-11.38,2.26,-0.20,-2.91,-14.21,-4.81,-26.82,48398
3.22,3.41,-7.73,3.79,-0.19,-5.98,-14.21,-8.71,-26.02,48432
-2.65,3.88,-13.81,4.52,1.23,-7.13,-13.20,-13.27,-25.37,48466
-12.78,-2.55,-19.60,5.67,1.38,-7.91,-10.95,-18.82,-24.32,48500
-18.86,-2.82,-16.55,9.43,-0.86,-11.32,-6.43,-22.90,-21.38,48535
-23.33,6.36,-25.30,9.94,-4.03,-13.03,1.34,-24.54,-18.05,48569
-19.19,17.06,-28.43,8.00,-4.81,-13.84,9.82,-21.86,-17.92,48603
-5.71,22.43,-18.26,4.85,-1.88,-10.41,14.26,-19.82,-19.73,48637
-9.78,18.36,-17.56,3.64,-2.52,-6.75,18.62,-18.11,-20.77,48671
-2.60,7.75,-16.82,3.15,-2.17,-6.40,20.90,-16.53,-23.15,48706
-0.92,2.68,-12.27,3.38,-2.49,-6.56,22.80,-13.26,-24.45,48740
-2.37,5.21,-11.18,3.16,-3.11,-5.61,23.88,-10.30,-28.33,48774
-0.86,12.07,-13.72,2.12,-2.46,-4.21,23.47,-8.49,-31.13,48808
-0.32,10.80,-18.77,1.21,-0.68,-3.27,22.43,-6.36,-32.86,48842
7.09,11.84,-17.05,1.11,1.01,-3.52,22.23,-3.54,-31.00,48876
4.26,7.79,-0.65,1.22,0.52,-2.01,21.43,-1.75,-30.23,48911
5.83,-6.28,-5.55,0.99,-0.32,-0.55,20.40,-0.57,-29.82,48945
-4.93,-7.17,3.90,1.55,-1.53,0.40,19.69,-1.24,-31.82,48979
-1.65,-17.89,-18.82,2.69,-3.03,-2.42,17.54,-0.66,-33.10,49013
-2.77,4.62,-23.01,4.63,-2.81,-6.21,13.68,1.64,-35.21,49047
1.33,13.46,-10.71,2.79,-1.70,-3.23,10.96,3.10,-37.09,49082
-4.42,8.42,-19.78,1.13,-1.18,-2.17,8.90,4.06,-36.57,49116
8.15,-2.46,-6.58,0.88,0.35,-1.16,6.87,6.26,-36.90,49150
-2.40,-1.04,-10.38,1.04,0.07,-1.40,6.08,7.29,-36.85,49184
6.58,-5.06,-7.73,1.60,-0.28,-2.27,2.73,8.43,-37.27,49218
2.01,1.69,-7.23,1.64,-0.32,-1.99,0.10,9.34,-37.20,49252
13.49,-2.40,-8.36,1.97,-0.73,-2.61,-2.25,10.61,-37.31,49287
11.40,1.76,-6.18,1.49,-0.46,-2.64,-5.67,10.93,-37.40,49321
10.58,0.17,-5.62,0.90,-0.06,-1.49,-7.22,11.65,-36.52,49355
11.82,-5.08,-2.77,0.65,0.48,-1.19,-8.48,11.40,-36.48,49389
7.89,-0.83,-6.07,0.25,0.16,-1.65,-9.78,11.18,-36.76,49423
8.30,-2.89,-5.52,0.33,0.14,-1.30,-10.76,11.59,-37.05,49458
10.72,-1.32,-4.31,-0.33,0.12,-0.92,-11.88,11.49,-35.74,49492
13.28,-4.00,-3.98,-1.37,0.28,-0.07,-12.04,13.18,-35.12,49526
8.04,-10.24,-12.01,-1.36,0.49,-0.09,-11.47,13.55,-34.84,49560
5.21,-4.39,-26.05,0.88,-1.54,-0.64,-11.31,13.90,-34.04,49594
-9.99,-10.11,-39.13,2.74,-2.71,-1.51,-12.82,12.61,-34.57,49628
-8.13,29.69,-14.59,1.97,4.05,-9.56,-13.30,8.17,-36.60,49663
-8.79,-5.75,-10.57,0.18,2.03,-10.26,-16.85,3.35,-34.74,49697
-4.21,-2.60,-6.31,1.03,0.03,1.35,-17.47,2.66,-34.27,49731
-17.93,-11.09,9.53,1.00,-2.88,3.80,-18.30,4.46,-30.69,49765
-16.95,-12.18,4.83,1.48,-6.12,-2.07,-21.98,3.62,-23.95,49799
-19.44,-9.65,14.99,13.07,-4.55,13.30,-23.63,5.32,-19.39,49833
4.52,11.04,-39.16,-5.49,-12.93,-3.55,-22.83,4.09,-8.92,49868
-10.59,14.22,23.97,7.46,4.19,3.80,-23.30,4.79,-14.19,49902
1.09,6.98,-19.09,-0.22,-2.59,-1.53,-22.87,4.14,-11.25,49936
2.90,-4.24,-12.54,1.96,-1.60,-1.29,-22.03,3.80,-11.30,49970
0.82,9.50,-11.69,3.10,-1.40,-4.00,-23.06,1.26,-11.50,50004
4.66,10.62,-11.12,2.68,-1.68,-4.27,-24.36,-3.10,-9.40,50039
2.06,9.17,-12.09,1.92,-1.54,-4.76,-23.71,-6.65,-7.38,50073
1.76,1.48,-10.11,1.47,-1.46,-3.81,-22.96,-10.30,-3.51,50107
1.41,-0.29,-10.51,1.08,-1.05,-3.23,-20.77,-12.92,-1.36,50141
0.18,2.78,-11.37,1.02,-0.78,-3.50,-18.72,-14.29,0.26,50175
-0.63,3.64,-11.92,1.30,-1.26,-3.56,-14.95,-15.86,2.86,50209
0.83,5.64,-12.07,1.27,-1.30,-4.44,-11.50,-16.98,4.27,50244
-0.08,1.51,-10.74,1.11,-1.04,-3.62,-7.31,-16.30,5.47,50278
7.41,1.79,-8.81,0.91,-0.74,-2.46,-3.68,-16.11,5.98,50312
3.56,-1.63,-9.48,0.83,-0.74,-1.75,-0.98,-15.35,5.10,50346
5.48,-1.57,-8.98,0.83,-0.58,-1.76,2.48,-14.53,4.59,50380
4.03,1.69,-9.27,0.65,-0.63,-1.86,5.29,-13.61,3.03,50415
5.76,0.77,-8.70,0.56,-0.49,-1.24,7.03,-12.92,0.66,50449
3.41,1.09,-7.43,0.43,0.01,-0.99,9.35,-12.57,-0.75,50483
4.37,0.54,-8.27,0.18,-0.11,-0.61,10.49,-12.39,-2.51,50517
4.69,1.14,-7.33,0.11,0.39,-0.72,11.30,-11.68,-3.57,50551
8.44,0.73,-7.32,-0.09,0.32,-0.17,12.83,-11.68,-4.88,50585
6.80,-0.63,-6.75,-0.16,0.56,0.11,13.49,-12.44,-5.86,50620
6.29,-3.81,-8.45,-0.14,0.41,0.52,14.26,-13.30,-7.16,50654
1.10,-3.16,-11.52,0.75,0.34,0.25,14.41,-12.64,-7.54,50688
-1.56,-4.24,-11.88,0.83,0.11,1.01,15.14,-13.34,-9.35,50722
-4.92,-4.76,-20.22,0.02,-0.81,0.92,15.76,-14.50,-12.53,50756
-2.05,-4.23,-15.89,1.69,0.54,1.40,14.97,-16.22,-15.30,50791
4.24,-4.56,-10.38,1.62,1.75,2.20,13.36,-18.37,-17.67,50825
7.61,17.37,-13.41,-0.59,2.78,1.15,11.33,-20.62,-20.67,50859
-8.53,-7.26,-3.55,0.14,0.59,-1.88,10.45,-20.93,-22.84,50893
1.36,3.32,-5.64,-0.55,-1.11,-3.62,10.29,-20.81,-27.24,50927
0.82,1.99,-9.45,-1.08,-1.58,-1.91,8.68,-21.19,-29.93,50961
3.75,-0.91,-8.53,-1.00,-1.43,-0.45,6.62,-21.28,-32.59,50996
5.09,-0.66,-8.50,-1.17,-1.47,-0.06,3.58,-21.70,-34.49,51030
5.28,-3.79,-9.37,-1.53,-1.31,0.33,0.98,-22.17,-35.18,51064
4.28,-3.70,-8.70,-1.30,-1.08,0.23,-2.38,-26.13,-36.32,51098
4.00,-5.80,-7.45,-0.94,-0.95,-0.21,-5.20,-23.43,-36.82,51132
5.42,-6.02,-7.63,-0.81,-0.92,-0.50,-7.31,-24.25,-35.98,51166
6.37,-4.97,-7.36,-0.61,-0.83,-0.44,-8.78,-26.09,-35.88,51201
6.04,-4.40,-7.13,-0.42,-0.56,-0.35,-10.04,-26.35,-34.86,51235
5.59,-3.78,-7.03,-0.46,-0.41,-0.24,-11.08,-27.38,-34.86,51269
5.41,-2.83,-7.07,-0.68,-0.22,0.11,-11.78,-28.11,-34.07,51303
3.95,-2.32,-7.88,-1.05,0.05,1.06,-13.23,-27.43,-34.52,51337
2.73,-2.69,-7.63,-1.26,0.15,1.64,-14.79,-26.97,-34.65,51372
3.33,-2.57,-7.95,-1.49,0.07,1.75,-15.89,-25.68,-34.71,51406
3.39,-1.85,-9.42,-1.57,0.08,1.78,-16.94,-24.10,-35.18,51440
2.80,-2.04,-9.26,-1.54,0.17,1.90,-18.36,-22.67,-35.69,51474
2.05,-2.86,-9.18,-1.49,0.29,1.91,-19.00,-21.08,-35.56,51508
1.67,-2.10,-8.92,-1.31,0.30,2.12,-19.48,-18.93,-36.03,51542
2.68,-1.57,-8.26,-1.26,0.32,2.25,-19.85,-16.79,-34.70,51577
23.71,8.53,-16.92,-3.17,1.13,2.76,-20.11,-14.66,-35.34,51611
-0.48,-1.69,-14.62,-1.42,1.70,2.87,-19.85,-11.43,-34.45,51645
5.41,-0.96,-8.97,-0.70,0.56,3.20,-19.13,-9.81,-34.87,51679
-1.89,-2.47,-9.85,-0.73,0.44,3.72,-18.23,-6.59,-33.85,51713
2.47,-6.80,-11.04,0.20,0.64,1.99,-16.71,-5.88,-32.55,51748
1.39,-5.38,-9.36,2.07,0.54,-0.99,-16.31,-6.66,-31.75,51782
1.15,1.56,-9.52,2.97,0.45,-2.93,-15.51,-9.27,-29.82,51816
-0.69,4.81,-10.55,3.20,-0.05,-2.80,-14.06,-12.20,-28.85,51850
1.70,2.96,-12.16,3.24,-0.72,-2.81,-12.15,-13.34,-27.11,51884
1.80,-0.42,-8.73,3.87,-0.81,-4.12,-10.30,-15.42,-25.04,51918
0.01,3.38,-12.64,3.85,-0.29,-5.11,-8.43,-16.82,-24.01,51953
1.44,9.35,-15.89,3.62,-0.01,-5.43,-5.48,-17.90,-24.38,51987
2.24,11.43,-12.54,3.42,0.54,-5.40,-1.97,-19.60,-23.50,52021
2.77,9.46,-11.27,2.68,-0.10,-4.57,1.64,-20.80,-24.55,52055
2.82,5.70,-9.92,2.82,-0.65,-4.51,4.88,-21.82,-24.16,52089
4.75,5.68,-6.73,3.05,-0.88,-4.83,9.79,-22.98,-23.84,52124
4.12,7.37,-0.67,2.99,-1.11,-4.41,13.29,-22.16,-23.00,52158
4.90,5.95,-10.61,1.97,-1.77,-3.92,17.16,-20.93,-24.25,52192
7.52,4.30,-12.56,1.84,-1.23,-3.95,20.05,-19.79,-24.88,52226
6.42,5.17,-12.58,2.18,-0.09,-5.29,23.15,-16.78,-25.55,52260
7.65,12.21,-1.07,2.82,0.92,-5.81,26.05,-12.73,-25.78,52294
3.64,6.70,-6.43,2.54,0.35,-5.21,27.54,-9.22,-26.47,52329
3.69,-1.17,-11.49,3.73,0.44,-6.91,27.58,-3.46,-26.28,52363
1.64,1.49,-9.42,5.19,0.76,-8.61,26.67,2.28,-27.70,52397
-0.72,3.26,-13.05,6.26,1.04,-9.23,23.55,7.64,-30.33,52431
-3.47,7.04,-12.69,6.93,1.04,-9.17,16.95,11.56,-34.32,52465
-1.57,6.70,-16.40,7.10,0.61,-8.65,11.71,11.65,-38.21,52500
-4.26,6.05,-17.34,7.62,-0.18,-8.37,6.78,8.20,-41.42,52534
-9.65,8.68,-16.81,7.40,-0.93,-8.23,1.36,1.94,-42.74,52568
-17.26,12.58,-16.41,8.40,-1.99,-9.32,-2.21,-4.52,-42.60,52602
-20.96,6.37,-21.63,7.00,-2.72,-10.59,-4.53,-10.57,-39.61,52636
-7.46,13.95,-17.67,5.86,-1.84,-10.78,-4.30,-14.00,-37.45,52670
-5.83,23.03,-11.49,4.56,-2.29,-7.18,-4.24,-15.30,-37.26,52705
-9.82,16.65,-12.27,2.43,-2.72,-3.38,-5.99,-17.23,-37.74,52739
0.94,5.02,-9.12,2.09,-1.49,-4.56,-6.31,-20.37,-38.72,52773
4.67,8.41,-7.75,2.57,-0.78,-6.37,-5.50,-24.41,-38.10,52807
0.82,15.94,-14.86,2.68,-0.58,-7.80,-1.30,-29.04,-36.98,52841
3.21,17.02,-13.53,2.71,0.37,-7.50,5.23,-32.10,-34.55,52875
-0.19,7.44,-13.49,1.54,-0.50,-4.07,10.98,-32.81,-32.26,52910
7.08,1.74,-11.20,1.94,-0.89,-4.29,15.26,-33.09,-31.98,52944
9.29,7.14,-9.23,2.23,-0.35,-5.06,19.96,-31.75,-30.82,52978
7.93,11.85,-10.27,1.85,0.16,-4.73,25.65,-28.60,-29.30,53012
8.06,8.25,-1.88,0.64,1.08,-3.32,28.84,-26.16,-27.52,53046
2.46,-2.22,-10.42,0.59,0.49,-2.15,30.72,-23.36,-26.35,53081
0.33,-2.64,-9.09,1.64,0.05,-3.36,32.71,-20.64,-26.60,53115
0.36,0.14,-9.15,2.38,-0.47,-4.34,34.54,-16.95,-26.16,53149
4.01,6.45,-7.96,2.32,-0.53,-4.13,35.95,-11.31,-27.08,53183
2.97,5.24,-8.51,2.05,-0.30,-3.25,35.95,-8.51,-27.62,53217
4.66,1.08,-7.32,2.10,-0.40,-2.74,35.78,-5.69,-29.26,53251
4.54,0.80,-9.42,3.22,-0.21,-4.16,35.49,-1.84,-29.85,53286
1.97,0.41,-6.77,4.98,0.45,-6.49,33.53,3.19,-32.33,53320
-3.35,2.98,-11.98,5.93,0.62,-7.37,30.42,8.74,-35.05,53354
-5.48,1.91,-18.26,6.64,-0.08,-6.80,25.49,11.21,-38.18,53388
-4.41,-3.46,-22.83,7.20,-0.89,-6.11,20.36,9.63,-43.69,53422
-6.76,-2.82,-31.79,8.32,-3.00,-7.02,12.69,5.48,-48.42,53457
-9.03,10.26,-36.94,9.10,-3.44,-11.43,5.52,-0.91,-49.53,53491
-6.67,25.92,-20.98,7.43,-1.80,-10.40,1.97,-4.56,-47.78,53525
-6.89,23.03,-24.08,4.30,-2.76,-7.37,-0.94,-6.68,-48.01,53559
-9.96,17.28,-14.59,2.61,-1.31,-6.39,-3.42,-8.20,-49.01,53593
-4.67,20.15,-13.57,2.74,-2.04,-5.37,-6.91,-12.61,-47.63,53627
13.53,13.99,-2.65,2.76,-2.67,-3.66,-9.84,-15.30,-45.75,53662
11.87,2.51,-4.91,2.97,-2.71,-4.88,-12.73,-19.00,-43.13,53696
17.02,9.42,1.36,2.94,-1.77,-5.46,-11.96,-23.85,-39.81,53730
6.37,16.80,-13.49,0.76,-1.94,-2.68,-10.96,-26.10,-38.13,53764
5.41,3.76,-17.50,0.20,-1.13,-1.94,-10.74,-27.33,-36.16,53798
-1.50,-4.41,-14.79,-0.13,-0.45,-0.00,-10.07,-26.86,-37.08,53833
6.65,-0.68,4.91,0.92,-1.60,-1.13,-9.57,-28.62,-35.90,53867
5.86,3.23,-13.17,0.70,-2.19,-2.34,-9.13,-30.02,-34.29,53901
3.90,6.54,-14.77,-0.24,-0.50,-0.92,-8.11,-30.12,-33.95,53935
-0.85,0.82,-9.13,-0.32,0.15,-0.23,-7.67,-30.15,-34.61,53969
-0.26,-2.32,-5.61,0.27,-0.41,-0.82,-6.93,-30.39,-34.26,54003
6.14,-1.41,-8.01,1.62,-0.30,-4.24,-4.57,-31.86,-33.09,54038
1.44,4.55,-15.75,2.34,1.06,-6.89,2.19,-33.38,-29.61,54072
0.05,13.45,-5.48,2.76,2.09,-6.98,8.52,-32.96,-27.73,54106
5.86,4.39,-13.19,2.04,1.02,-5.00,13.02,-32.02,-26.56,54140
3.87,-0.89,-13.19,3.14,1.87,-6.37,19.07,-28.63,-22.84,54174
6.53,11.01,4.59,3.84,2.53,-7.30,24.32,-23.49,-18.81,54208
5.54,4.63,-1.53,2.97,1.34,-5.36,26.21,-19.29,-16.43,54243
3.52,-4.66,-11.61,3.38,1.05,-5.01,27.86,-14.06,-14.03,54277
6.05,-5.87,-13.70,5.07,0.43,-5.88,28.69,-8.61,-13.11,54311
1.46,9.44,-9.40,5.40,0.25,-6.38,27.83,-1.01,-13.48,54345
-0.29,11.90,-10.43,5.01,-0.10,-5.00,26.21,4.06,-14.89,54379
-6.29,-1.83,-15.78,5.67,-1.06,-4.75,23.95,7.40,-18.56,54414
-8.55,-5.58,-23.82,7.89,-2.78,-8.72,19.04,11.78,-25.10,54448
-12.32,11.38,-22.27,10.34,-3.21,-11.99,11.11,13.46,-32.91,54482
-11.58,17.69,-24.46,8.51,-3.26,-12.18,1.58,11.05,-39.77,54516
-6.14,19.67,-19.87,6.20,-3.28,-8.80,-6.23,6.02,-43.61,54550
-9.94,11.02,-15.95,3.49,-2.18,-5.20,-9.44,1.96,-44.56,54584
-6.58,4.35,-14.62,3.23,-2.86,-4.78,-13.01,-2.82,-46.33,54619
-3.72,4.82,-18.12,3.05,-1.76,-6.50,-15.42,-9.06,-47.16,54653
-6.27,13.30,-14.00,3.56,-0.47,-7.42,-14.32,-16.59,-47.19,54687
-5.68,13.87,-20.34,3.79,-0.76,-6.03,-11.85,-24.90,-44.10,54721
0.11,10.42,-24.09,3.20,-1.21,-5.40,-8.16,-29.03,-41.08,54755
-3.44,6.60,-14.89,3.16,-2.12,-4.53,-5.60,-32.45,-35.55,54790
-1.50,6.16,-19.50,3.70,-3.31,-5.17,-1.86,-33.54,-30.25,54824
-7.56,11.99,-16.52,3.63,-2.89,-6.44,2.51,-32.91,-24.35,54858
-6.19,16.92,-8.84,2.92,-2.89,-5.33,8.56,-29.39,-19.51,54892
-3.60,18.81,-9.39,2.30,-2.23,-3.92,12.09,-25.81,-18.63,54926
4.75,9.57,-9.34,1.54,-1.52,-1.83,14.40,-22.74,-18.90,54960
8.71,-4.53,-37.60,-1.79,-1.56,-0.09,15.36,-20.17,-19.94,54995
17.27,-6.25,-18.70,0.04,3.57,-2.73,17.16,-18.30,-18.85,55029
1.67,7.89,-2.67,0.38,-0.04,-1.51,18.88,-15.96,-18.59,55063
16.89,-7.72,-5.54,0.96,0.26,-0.45,19.50,-14.79,-19.83,55097
2.26,3.03,-8.34,0.16,-0.12,-1.05,20.33,-14.82,-21.43,55131
9.57,-7.68,-6.98,-0.09,-0.10,-0.44,20.89,-13.91,-21.57,55166
4.89,-0.72,-9.08,-0.12,0.23,-0.75,21.27,-13.08,-23.21,55200
3.50,-1.00,-9.70,0.03,0.08,-0.90,21.81,-13.02,-24.67,55234
0.22,-4.08,-10.09,1.17,-0.30,-1.82,23.00,-12.53,-25.39,55268
-0.72,0.77,-12.86,1.85,-0.90,-2.63,22.62,-12.39,-27.23,55302
1.45,0.21,-8.07,2.62,-0.97,-3.18,22.89,-11.41,-29.54,55336
6.61,-2.28,-10.49,2.27,-1.23,-3.78,22.98,-11.27,-30.90,55371
5.08,1.46,-11.02,2.71,-1.20,-4.72,23.08,-10.51,-31.64,55405
-1.71,7.54,-10.87,2.45,-1.24,-3.80,23.27,-9.50,-32.37,55439
0.90,-0.17,-11.40,2.08,-1.29,-3.44,23.24,-9.24,-33.21,55473
6.85,1.57,-11.95,2.17,-1.38,-3.99,24.22,-7.66,-33.54,55507
2.65,1.37,-10.00,1.85,-1.50,-3.94,24.03,-6.18,-34.61,55541
5.09,5.13,-9.16,1.99,-1.11,-3.92,23.47,-3.95,-34.68,55576
5.18,-1.07,-10.16,1.82,-1.33,-3.91,22.92,-0.94,-35.68,55610
3.02,1.46,-11.24,1.73,-1.11,-4.04,21.70,1.96,-36.79,55644
2.83,3.36,-8.33,1.85,-0.87,-3.66,20.64,4.27,-37.66,55678
2.54,3.62,-10.08,1.57,-0.68,-2.86,18.27,5.92,-38.83,55712
4.42,-0.19,-9.51,1.15,-0.67,-1.66,16.85,7.23,-40.11,55747
3.55,-1.16,-8.04,1.21,-0.42,-1.57,15.62,7.80,-41.06,55781
0.56,-0.75,-10.30,0.93,-0.74,-1.51,13.99,8.81,-41.61,55815
3.17,-1.95,-8.87,1.14,-0.73,-1.83,11.91,9.59,-42.28,55849
2.64,-0.08,-7.23,1.37,-0.78,-2.16,9.43,9.73,-43.25,55883
4.67,-0.10,-8.86,1.08,-0.94,-2.12,6.78,9.57,-43.61,55917
5.01,0.84,-9.01,0.76,-0.83,-1.41,4.17,9.51,-43.60,55952
4.10,1.68,-6.31,-0.24,-0.58,-0.49,3.33,10.13,-43.50,55986
6.89,-2.00,-7.80,-0.98,-0.39,0.50,3.08,11.02,-41.84,56020
4.60,-1.00,-5.66,-1.13,-0.05,0.46,2.89,12.22,-41.04,56054
4.00,-2.09,-9.45,-1.69,-0.15,-0.34,2.15,13.58,-39.42,56088
3.29,-0.06,-8.50,-1.33,0.09,-0.09,2.05,14.83,-37.62,56123
1.79,-0.36,-9.79,-1.27,-0.03,0.12,2.19,16.25,-35.63,56157
1.90,1.15,-9.77,-0.78,-0.00,0.14,2.28,16.71,-35.05,56191
1.77,1.73,-9.00,-0.63,-0.25,0.24,2.72,17.29,-33.59,56225
5.54,-0.54,-7.67,-0.31,-0.35,0.23,2.70,16.92,-32.65,56259
4.93,-1.40,-7.87,-0.74,-0.22,0.50,3.46,17.52,-31.53,56293
4.58,-0.47,-8.14,-1.06,-0.05,0.72,4.36,17.98,-29.80,56328
3.26,-0.43,-9.02,-1.21,-0.17,1.08,5.44,18.14,-28.65,56362
2.31,-1.31,-10.31,-1.15,-0.49,1.40,6.50,18.14,-26.98,56396
2.45,-0.61,-9.39,-0.86,-0.70,1.58,8.39,18.09,-25.58,56430
2.30,0.50,-9.64,-0.22,-0.99,1.37,9.88,17.30,-25.17,56464
4.46,-1.69,-9.59,0.11,-1.27,1.25,11.24,16.21,-25.15,56499
3.36,-0.29,-8.85,0.40,-1.11,0.94,13.04,15.87,-25.45,56533
2.78,0.58,-8.29,0.32,-0.96,0.84,13.84,15.17,-26.59,56567
1.05,0.85,-9.27,0.09,-1.00,0.86,14.81,13.72,-27.04,56601
-0.65,2.11,-9.23,0.28,-0.64,0.43,15.81,13.02,-27.32,56635
-2.10,3.17,-9.80,0.24,-0.50,-0.02,16.79,12.58,-27.10,56669
-3.52,1.09,-10.06,0.17,-0.42,-0.24,17.49,12.22,-27.29,56704
-2.52,0.30,-9.97,0.49,-0.15,-0.69,19.00,12.12,-27.51,56738
-3.03,-0.62,-10.04,1.22,0.00,-1.41,20.42,12.09,-28.15,56772
-2.58,0.56,-10.57,1.61,-0.87,-2.13,21.50,12.15,-30.71,56806
-9.76,-1.79,-13.45,2.06,-1.50,-3.37,20.94,12.89,-34.45,56840
-2.98,8.65,-10.26,2.12,-2.03,-6.28,17.38,15.23,-41.64,56875
-4.03,12.28,-13.02,1.31,-1.98,-6.53,11.84,16.85,-46.61,56909
-2.72,11.66,-13.70,0.13,-2.07,-6.86,4.53,17.93,-51.55,56943
0.85,10.22,-10.56,0.88,-2.60,-6.40,-5.36,16.78,-55.12,56977
4.69,1.97,-17.12,0.09,-3.12,-5.53,-14.48,14.35,-56.69,57011
8.40,10.96,-11.71,-0.86,-1.27,-4.88,-20.20,10.33,-57.32,57045
8.86,9.54,-8.13,-0.49,-0.29,-1.89,-23.36,8.77,-57.22,57080
10.69,4.55,-7.86,-1.81,-0.02,-0.37,-23.98,10.44,-55.90,57114
9.52,2.94,-9.46,-2.06,0.60,1.56,-22.36,15.07,-53.95,57148
10.96,-0.72,-9.38,-2.30,1.53,1.78,-19.12,18.72,-51.75,57182
13.18,0.69,-8.39,-1.88,2.29,0.43,-15.29,22.08,-50.60,57216
-4.39,-0.44,-11.60,0.07,1.40,0.26,-12.72,23.62,-48.93,57250
2.89,-3.89,-11.36,-0.42,1.93,-3.67,-14.09,22.57,-48.89,57285
0.84,-3.25,-10.31,0.02,1.73,-3.36,-14.86,21.40,-49.49,57319
5.33,-7.76,-11.44,0.14,1.62,-3.92,-16.18,19.64,-49.72,57353
2.20,-6.21,-11.76,0.77,1.89,-4.95,-17.82,16.69,-51.84,57387
3.02,-1.48,-12.45,1.08,2.14,-4.97,-18.24,12.29,-54.66,57421
3.15,1.33,-11.33,0.99,2.38,-4.43,-17.19,8.64,-57.95,57456
3.79,2.89,-9.58,0.60,2.39,-3.02,-14.63,6.39,-59.81,57490
5.28,3.35,-7.78,-0.44,2.15,-1.55,-10.74,5.32,-61.11,57524
3.19,1.33,-7.18,-1.08,1.75,-0.70,-7.48,6.91,-61.90,57558
2.24,-0.47,-6.54,-0.80,1.47,-0.50,-4.12,8.83,-61.91,57592
0.24,-0.59,-6.62,-0.26,1.03,-1.02,-2.53,9.66,-61.66,57626
2.36,-0.27,-9.80,0.30,0.07,-1.91,-2.70,9.89,-62.32,57661
2.22,1.97,-11.46,0.70,-0.27,-2.45,-3.62,9.11,-63.81,57695
0.04,3.28,-11.55,0.88,-0.38,-2.45,-5.42,7.97,-64.81,57729
3.95,6.76,-13.38,0.50,-0.22,-1.73,-6.97,7.26,-65.54,57763
0.75,5.06,-14.27,0.53,0.23,0.42,-6.33,5.57,-66.87,57797
1.95,1.46,-13.31,0.68,0.55,1.14,-4.60,4.84,-66.97,57832
3.11,-2.68,-12.41,1.47,0.89,1.52,-2.35,2.03,-67.23,57866
1.67,-5.50,-7.89,2.31,0.47,1.74,-0.63,-2.79,-68.08,57900
1.44,-7.21,-6.09,3.28,-0.11,1.04,0.37,-9.12,-68.44,57934
-1.76,-3.69,-7.79,4.17,-1.24,-1.54,-1.51,-17.66,-67.47,57968
-9.38,9.53,-10.73,4.97,-2.37,-6.91,-2.75,-26.25,-65.29,58002
1.00,17.27,-10.13,4.37,-1.94,-6.84,0.15,-35.22,-60.22,58037
1.55,14.65,-2.61,3.14,-1.19,-4.51,3.27,-39.26,-56.81,58071
-0.76,13.41,8.92,2.64,-0.91,-3.11,5.50,-43.17,-54.17,58105
6.73,2.38,-39.16,-9.39,-8.65,-0.17,-1.23,-38.72,-58.07,58139
6.41,-6.60,-31.91,-8.16,-4.65,0.92,1.91,-41.16,-56.94,58173
5.56,1.20,-15.35,-1.40,0.43,-2.42,2.78,-40.12,-57.26,58208
-2.20,2.77,-11.32,0.64,0.17,-0.12,3.32,-40.89,-56.07,58242
1.75,-0.46,-10.10,0.39,-0.46,-0.05,2.67,-41.30,-55.95,58276
-0.63,-6.11,-11.47,0.54,-0.95,-0.16,1.23,-41.74,-54.18,58310
3.61,-0.93,-8.25,0.83,-0.51,-2.37,2.41,-42.14,-52.72,58344
3.30,-3.99,-10.12,0.91,-0.57,-1.86,3.95,-42.69,-50.28,58378
0.37,3.31,-8.94,1.96,-0.37,-3.67,6.74,-43.61,-47.57,58413
0.63,0.56,-10.74,1.60,-0.78,-2.94,9.22,-44.30,-45.37,58447
1.16,-1.07,-9.85,2.15,-0.59,-3.85,12.53,-43.82,-40.66,58481
2.32,-1.41,-12.57,3.14,-0.51,-6.18,19.47,-42.69,-37.21,58515
-1.42,4.33,-13.31,3.85,0.26,-7.88,26.44,-38.75,-32.26,58549
0.61,5.56,-11.98,4.36,0.95,-8.49,34.84,-30.53,-25.99,58583
3.65,7.49,-7.71,3.73,1.05,-8.25,39.59,-21.59,-22.84,58618
3.88,-0.03,-4.97,2.55,0.92,-6.57,41.67,-12.91,-20.86,58652
0.61,0.67,-5.62,1.07,-0.43,-3.59,41.68,-6.42,-21.51,58686
8.14,-5.68,-6.55,0.11,-0.47,0.05,42.09,-5.13,-22.54,58720
-1.58,-5.27,-7.44,-0.18,-1.50,1.10,42.41,-7.18,-25.26,58754
1.40,-5.65,-7.94,0.10,-1.48,0.13,42.72,-7.63,-27.55,58789
2.91,-4.53,-7.16,0.03,-1.56,0.17,42.60,-8.54,-29.54,58823
2.88,-4.85,-6.94,-0.06,-1.38,0.02,42.52,-9.75,-32.71,58857
4.44,-2.69,-4.38,-0.12,-0.48,-0.39,43.00,-10.03,-33.95,58891
-0.81,-2.46,-23.68,-0.97,-1.03,-1.44,42.97,-9.12,-35.18,58925
4.42,6.56,-1.39,-0.89,0.69,-0.76,43.25,-7.25,-34.58,58959
5.53,-5.01,-8.34,-1.91,-0.12,0.59,43.12,-7.59,-35.79,58994
1.78,-1.11,-10.15,-1.06,0.41,-0.29,43.57,-6.39,-34.92,59028
3.52,1.64,-9.00,-0.83,-0.01,-0.07,43.73,-5.67,-35.40,59062
3.98,-0.05,-9.74,-0.53,-0.02,-0.24,43.64,-5.45,-35.63,59096
2.34,-0.86,-9.85,-0.36,0.12,-0.44,43.47,-5.31,-35.53,59130
1.90,-3.59,-9.55,-0.18,-0.03,-0.29,43.58,-5.00,-35.79,59165
1.25,-3.60,-10.50,0.61,-0.27,-0.18,43.66,-5.38,-36.04,59199
1.08,-1.93,-10.55,0.94,-0.78,0.04,42.40,-7.07,-37.58,59233
0.90,-0.12,-9.13,0.55,-1.22,0.37,41.11,-8.29,-38.89,59267
0.71,2.64,-7.89,0.49,-1.30,-0.02,39.10,-9.50,-41.63,59301
2.37,5.28,-9.86,0.40,-1.01,-0.01,37.59,-10.77,-42.88,59335
1.30,1.33,-9.54,0.15,-0.45,0.24,36.48,-12.26,-44.64,59370
1.40,1.42,-9.27,0.27,0.16,-0.28,36.51,-12.88,-43.91,59404
0.03,-0.11,-9.45,0.38,0.37,-0.11,36.25,-13.87,-43.92,59438
-1.31,0.06,-9.83,0.50,0.48,-0.40,36.17,-15.59,-43.73,59472
-0.82,-0.59,-10.29,0.53,0.35,-0.37,36.90,-16.52,-43.50,59506
-0.49,-3.75,-10.54,0.61,-0.08,-0.04,36.16,-17.32,-44.33,59541
-1.42,-1.92,-10.46,1.02,-0.24,-0.18,36.88,-19.26,-44.33,59575
-2.57,-1.76,-11.02,1.00,-0.21,0.05,36.10,-21.50,-44.50,59609
-8.29,-4.49,-14.59,1.05,0.31,-0.07,35.79,-23.53,-44.37,59643
5.17,0.68,-19.70,1.01,0.57,-2.23,36.63,-23.12,-44.46,59677
10.75,9.17,-10.52,3.74,3.28,-2.70,39.33,-22.10,-40.75,59711
18.91,13.37,-2.64,1.70,3.05,-2.40,42.28,-19.47,-38.12,59746
6.78,4.58,-2.90,0.84,2.00,-1.50,43.34,-17.71,-36.90,59780
1.11,0.29,-0.14,0.91,0.91,-2.76,45.09,-14.81,-36.13,59814
2.24,0.34,-1.70,0.56,-0.12,-4.41,46.20,-8.49,-37.69,59848
2.59,-1.27,-5.93,0.14,-0.71,-4.92,45.95,-2.27,-40.35,59882
3.54,0.27,-7.51,0.24,-0.36,-3.86,45.02,4.15,-43.60,59916
6.65,1.28,-7.28,0.46,-0.11,-2.26,45.03,8.70,-47.53,59951
5.91,1.42,-7.67,0.34,-0.22,-1.56,44.65,10.20,-50.88,59985
25.20,1.83,-12.44,-1.16,0.49,-1.54,44.62,12.72,-54.02,60019
4.02,0.68,-7.39,0.23,-0.35,0.02,44.55,11.03,-58.62,60053
6.66,-0.36,-5.26,0.38,-0.76,-0.54,42.78,11.33,-63.45,60087
3.90,-2.06,-3.96,0.25,-1.78,0.07,38.72,10.41,-70.89,60122
7.61,-0.76,-8.38,0.08,-2.50,0.59,33.10,9.28,-75.67,60156
3.68,1.85,-5.01,-0.32,-3.06,1.41,26.10,8.18,-82.97,60190
0.97,0.77,-8.47,-1.16,-3.82,3.19,15.08,8.26,-87.72,60224
3.06,-1.72,-12.88,-1.53,-3.62,3.86,5.31,9.85,-90.28,60258
2.18,-1.31,-9.43,-0.52,-1.74,2.58,-4.91,12.53,-90.35,60292
2.96,5.30,-7.74,-0.85,-1.01,2.55,-9.68,16.19,-88.19,60327
2.37,2.50,-12.72,-1.87,-0.74,4.04,-12.99,22.19,-85.38,60361
5.01,-4.52,-11.06,-1.80,0.04,4.24,-11.91,30.82,-79.16,60395
4.00,-6.01,-9.24,-1.29,-0.14,3.32,-9.15,35.22,-74.57,60429
2.81,-4.54,-8.54,-0.25,-0.67,1.89,-9.02,37.99,-70.53,60463
0.05,0.92,-10.51,-0.06,-1.57,1.49,-9.18,37.74,-67.20,60498
1.75,6.07,-9.59,0.01,-0.95,2.17,-8.39,38.09,-64.24,60532
1.30,1.48,-5.41,-0.56,-1.08,3.47,-4.90,38.76,-60.07,60566
-2.28,-5.78,-9.96,-0.76,-1.56,3.54,-0.99,39.78,-56.30,60600
-1.26,-1.45,-11.57,-0.23,-1.73,3.23,2.27,38.88,-53.74,60634
1.55,5.00,-7.71,-0.62,-1.58,5.18,7.75,37.15,-51.59,60668
1.94,0.46,-11.22,-1.27,-1.76,6.54,15.84,34.26,-48.67,60703
1.13,-4.09,-13.42,-0.84,-1.59,5.08,20.96,29.51,-48.07,60737
2.93,0.00,-11.01,-0.28,-1.46,4.28,24.71,25.26,-48.76,60771
4.71,2.47,-11.02,-0.41,-1.33,4.96,26.70,20.87,-49.97,60805
5.40,2.28,-10.02,-0.64,-0.49,4.72,29.32,15.36,-48.26,60839
0.56,-0.87,-12.18,-0.52,-0.66,4.30,30.99,10.39,-48.74,60874
-0.94,-0.58,-13.07,-0.29,-0.62,3.69,31.18,6.80,-48.55,60908
-2.07,-5.77,-9.62,0.02,-0.78,3.17,30.93,2.65,-49.04,60942
0.34,-0.16,-7.99,0.01,-1.88,3.70,29.16,-1.15,-51.01,60976
0.06,7.04,-9.01,0.00,-0.98,4.13,26.79,-4.27,-51.71,61010
0.06,3.89,-7.31,-0.89,-0.25,5.24,26.25,-6.72,-51.90,61044
0.41,-1.67,-9.57,-1.26,-0.78,5.83,24.85,-8.68,-52.06,61079
-0.29,-2.48,-10.99,-1.20,-1.08,5.63,22.35,-10.71,-52.70,61113
1.56,0.69,-9.65,-0.96,-0.97,4.97,20.10,-11.37,-53.71,61147
4.66,3.19,-6.36,-1.12,-1.22,5.51,18.28,-12.70,-54.24,61181
-1.57,4.67,-10.82,-1.76,-1.22,7.01,15.46,-12.92,-55.29,61215
-2.31,-0.32,-9.21,-1.54,-1.00,6.27,13.62,-13.50,-56.37,61250
-0.14,2.09,-9.17,-1.43,-1.25,5.97,11.34,-12.82,-57.12,61284
-3.76,4.06,-12.23,-1.87,-1.21,6.88,9.53,-12.19,-57.56,61318
0.32,0.78,-7.54,-1.85,-1.10,6.91,8.42,-10.96,-58.49,61352
-2.25,1.17,-10.14,-2.03,-1.48,7.07,6.20,-9.35,-59.43,61386
0.38,2.06,-9.66,-1.65,-0.97,6.16,5.51,-7.66,-60.29,61420
0.86,2.01,-10.11,-1.73,-1.00,6.04,4.97,-5.22,-60.92,61455
-0.09,1.52,-10.73,-1.57,-0.90,5.73,4.63,-3.05,-62.03,61489
1.11,2.31,-8.66,-1.47,-0.72,5.54,4.46,-1.70,-62.86,61523
0.76,1.96,-9.38,-1.46,-0.82,5.48,5.51,0.95,-63.61,61557
2.94,1.84,-7.31,-1.30,-0.66,5.14,6.64,1.80,-64.32,61591
3.06,3.39,-7.52,-1.11,-0.59,4.68,7.67,3.39,-64.95,61625
2.99,5.80,-7.34,-1.02,-0.41,4.63,9.69,4.60,-65.13,61660
-1.22,6.51,-8.65,-1.12,-0.41,4.51,11.24,5.60,-66.25,61694
-0.68,3.91,-11.36,-1.28,-0.52,4.19,12.47,8.08,-67.10,61728
-2.58,0.77,-10.65,-0.80,-0.25,3.91,15.30,9.94,-67.89,61762
-0.36,-3.89,-7.60,-0.20,-0.66,2.89,16.59,11.12,-66.75,61796
0.25,-3.09,-9.55,0.37,-1.01,1.55,17.07,11.43,-68.34,61831
5.41,0.90,-9.11,0.93,-0.18,0.82,16.94,11.33,-69.61,61865
2.81,6.75,-6.22,0.67,-0.06,1.43,18.43,11.39,-69.66,61899
4.40,2.74,-12.36,-0.19,-0.68,2.54,20.58,12.73,-69.53,61933
9.68,-0.96,-11.53,0.50,0.63,0.80,22.46,14.00,-68.96,61967
5.63,3.12,-9.89,-0.08,1.37,2.21,28.84,15.10,-65.05,62001
7.57,10.26,-8.34,-0.25,1.28,3.05,34.43,15.36,-60.77,62036
1.73,9.64,-11.59,-1.23,1.15,5.13,41.52,13.26,-55.33,62070
2.64,6.96,-10.27,-1.47,1.46,5.62,49.80,6.88,-44.02,62104
-4.47,8.27,-9.68,-1.53,1.05,6.12,54.30,-1.52,-35.60,62138
1.26,-1.56,-15.38,-1.29,0.01,5.83,55.48,-13.97,-27.97,62172
7.57,3.91,-13.48,-0.71,1.47,4.40,53.84,-22.46,-20.43,62207
3.12,8.65,-11.23,-1.03,2.08,3.61,50.10,-31.10,-12.96,62241
0.84,9.66,-12.96,-1.65,2.46,2.89,42.47,-38.38,-6.42,62275
-0.04,8.14,-15.97,-2.46,2.45,3.39,35.38,-44.88,-3.90,62309
-4.96,8.18,-8.86,-2.43,2.00,3.22,26.88,-50.50,-5.61,62343
-3.88,1.92,-12.92,-3.06,0.81,4.41,16.79,-55.38,-10.76,62377
-1.20,-4.24,-14.32,-2.89,0.23,3.40,9.79,-57.22,-16.46,62412
-0.71,-0.83,-9.48,-1.43,1.24,1.26,5.28,-56.53,-22.07,62446
-2.31,-0.36,-12.22,-1.42,0.63,0.82,3.39,-55.38,-25.84,62480
-0.61,-1.15,-12.29,-1.59,0.20,1.23,1.65,-54.71,-29.32,62514
-0.81,-2.52,-11.85,-1.26,-0.07,1.29,-1.52,-52.53,-33.44,62548
1.09,-1.08,-10.07,-0.97,-0.06,1.18,-3.13,-50.85,-36.45,62583
2.53,-0.11,-10.06,-0.64,-0.34,1.03,-5.17,-48.52,-38.50,62617
4.73,-0.11,-7.70,-0.35,-0.21,1.02,-7.35,-46.99,-39.87,62651
3.66,-1.16,-8.50,-0.32,-0.17,1.00,-8.42,-45.69,-42.47,62685
3.71,-0.35,-8.18,-0.16,0.06,0.47,-9.51,-43.95,-44.14,62719
2.33,-0.27,-8.69,-0.05,-0.03,0.35,-9.66,-41.93,-45.41,62753
3.04,-0.33,-8.07,0.02,-0.03,0.13,-9.41,-40.91,-46.57,62788
2.70,-0.40,-8.91,0.05,0.13,0.10,-9.15,-39.05,-48.09,62822
2.15,0.24,-8.69,-0.02,0.21,0.11,-8.13,-37.97,-49.42,62856
2.17,-1.44,-9.78,-0.10,-0.03,0.24,-7.32,-36.54,-50.50,62890
2.94,-1.40,-9.00,0.06,0.11,0.18,-6.61,-34.70,-51.67,62924
2.91,-1.42,-8.89,0.06,-0.10,0.23,-5.32,-33.15,-51.77,62958
1.74,-3.13,-10.97,0.36,-0.23,0.22,-5.32,-31.56,-52.38,62993
-1.20,-4.58,-11.45,1.27,-0.16,0.22,-4.68,-31.28,-52.53,63027
-2.48,-5.96,-13.01,1.61,-0.60,0.27,-4.49,-32.07,-51.33,63061
-1.31,-7.40,-15.92,1.57,-1.41,0.19,-5.74,-32.84,-48.99,63095
0.08,-5.45,-16.17,2.11,-1.41,0.00,-7.72,-33.85,-47.02,63129
3.24,-0.23,-12.55,3.00,-0.35,-1.36,-7.31,-36.41,-41.44,63164
-0.22,3.20,-12.62,2.11,0.01,-5.35,-3.64,-36.74,-39.05,63198
-0.02,0.57,-10.37,3.31,0.27,-5.98,1.84,-37.68,-35.40,63232
-0.81,4.41,-9.41,2.83,0.17,-5.46,6.96,-36.70,-31.61,63266
2.53,4.56,-7.90,2.43,0.38,-4.60,10.48,-34.57,-29.52,63300
3.03,3.02,-6.66,2.33,0.23,-3.57,12.20,-31.75,-28.40,63334
2.73,2.42,-5.74,1.84,-0.42,-1.92,12.28,-28.31,-27.52,63369
3.15,2.21,-5.83,1.31,-1.12,-0.87,10.63,-26.67,-27.84,63403
2.70,1.52,-7.05,0.74,-1.56,-0.25,7.40,-23.75,-28.56,63437
1.84,1.04,-8.06,0.51,-2.14,0.11,3.54,-21.37,-28.12,63471
2.39,1.05,-8.77,0.35,-2.54,-0.19,-0.94,-18.24,-28.15,63505
2.54,0.64,-9.60,0.14,-3.04,-1.20,-5.88,-14.19,-24.70,63540
3.09,0.60,-9.49,0.13,-3.37,-3.13,-9.92,-10.87,-20.86,63574
9.64,10.31,-8.01,0.09,-3.65,-4.89,-12.73,-8.71,-13.23,63608
18.28,-27.37,-9.88,3.46,-2.52,-0.86,-12.95,-6.18,-6.26,63642
14.31,3.89,0.02,1.72,1.78,-5.76,-11.43,-4.81,-3.58,63676
5.34,-1.72,-7.81,0.11,-0.17,1.91,-11.12,-1.91,-2.13,63710
6.09,0.63,-8.46,-0.88,0.85,-0.23,-10.01,-0.18,-0.75,63745
-0.81,2.28,-9.79,-0.52,0.63,0.17,-8.93,1.10,0.09,63779
3.59,-1.29,-9.68,-0.32,0.28,-0.20,-7.73,2.34,1.33,63813
4.21,-2.48,-8.81,0.06,0.14,-0.28,-6.59,3.52,2.19,63847
5.35,-2.58,-9.65,0.09,0.18,-0.07,-5.50,4.38,2.32,63881
1.78,-0.80,-8.12,0.38,0.52,-0.01,-4.09,4.87,1.51,63916
2.48,-0.08,-8.02,0.44,0.27,-0.11,-2.40,5.96,1.72,63950
3.86,-1.03,-8.18,0.48,0.11,-0.07,-0.57,6.34,0.19,63984
4.51,1.23,-8.67,0.43,0.16,0.06,1.24,6.90,-0.53,64018
5.67,-0.45,-7.08,0.16,0.30,0.37,2.05,6.90,-1.55,64052
4.78,-2.17,-8.05,0.19,0.24,0.61,3.30,7.16,-1.91,64086
4.48,-2.54,-9.77,0.55,0.18,0.88,4.25,6.77,-2.22,64121
2.18,-3.25,-11.80,0.99,0.15,1.30,5.76,6.58,-3.23,64155
