ax,ay,az,gx,gy,gz,mx,my,mz,timestamp
-0.93,-10.03,-1.22,-0.26,0.61,-0.53,36.88,-28.11,-17.92,18054
-2.08,-9.38,-0.99,0.08,0.52,-0.04,36.22,-27.57,-17.01,18088
-0.36,-9.95,-1.31,-0.17,0.46,0.11,35.75,-27.21,-16.37,18123
1.16,-9.49,-1.87,-0.10,0.43,0.02,34.81,-27.19,-16.46,18157
-1.49,-10.23,-0.94,-0.19,0.52,-0.09,34.84,-26.88,-15.38,18191
-1.42,-9.49,-0.89,0.13,0.29,0.08,34.38,-28.02,-15.46,18225
-1.48,-9.57,-0.63,0.03,0.17,0.29,35.19,-29.36,-14.69,18259
1.39,-9.18,-0.86,0.02,0.23,0.21,34.48,-30.14,-14.50,18293
0.74,-10.01,-2.07,-0.03,0.52,0.06,34.04,-29.87,-14.29,18328
-1.65,-9.90,-1.53,0.06,0.54,0.03,33.73,-29.83,-13.31,18362
-0.21,-9.92,-1.65,-0.04,0.32,0.12,34.07,-29.95,-13.20,18396
0.56,-9.29,-1.93,0.02,0.39,0.14,33.95,-29.48,-12.69,18430
-2.21,-9.96,-1.56,-0.05,0.38,0.01,33.41,-29.01,-11.88,18464
-2.02,-10.02,-1.53,0.03,0.20,-0.01,33.82,-29.13,-12.55,18499
-1.52,-10.22,-1.79,0.09,0.19,-0.01,33.73,-28.49,-12.74,18533
-0.19,-8.97,-1.47,0.00,0.31,0.13,33.95,-28.53,-12.03,18567
-0.10,-9.04,-2.01,-0.04,0.44,0.30,33.60,-27.89,-7.54,18601
-1.08,-10.02,-1.72,-0.28,0.26,-0.10,33.73,-27.02,-10.98,18635
0.40,-9.35,-1.19,0.12,0.37,-0.01,34.00,-26.94,-10.03,18669
0.49,-9.25,-1.39,0.05,0.53,0.14,34.58,-27.01,-10.10,18704
-0.13,-9.21,-1.03,-0.12,0.39,-0.04,33.91,-27.24,-10.30,18738
-1.34,-9.68,-1.32,-0.14,0.31,-0.21,34.68,-27.67,-9.11,18772
0.11,-10.05,-1.30,0.22,0.35,0.03,34.76,-27.51,-8.67,18806
0.43,-10.01,-1.71,0.19,0.41,0.06,34.29,-27.48,-8.23,18840
-1.14,-10.18,-1.29,0.26,0.20,-0.39,34.61,-27.96,-8.59,18875
-1.00,-9.52,-0.77,0.22,0.24,-0.22,34.43,-28.15,-8.30,18909
0.11,-10.10,-1.61,0.26,0.02,-0.15,34.30,-28.62,-8.42,18943
-0.95,-9.54,-1.51,0.41,0.06,-0.24,34.24,-28.85,-8.43,18977
0.61,-8.73,-1.04,0.58,0.19,-0.13,34.35,-27.87,-7.98,19011
-0.06,-9.51,-0.31,0.17,0.31,0.03,33.54,-28.40,-7.88,19045
0.24,-9.55,0.01,-0.07,0.19,-0.10,32.80,-29.00,-8.16,19080
-0.34,-10.15,-1.29,-0.21,0.35,-0.01,32.04,-28.98,-7.64,19114
-2.05,-10.31,-0.78,0.21,0.55,0.05,31.70,-28.88,-6.66,19148
-0.18,-9.66,-0.12,0.02,0.36,0.00,30.31,-29.03,-7.67,19182
-0.72,-10.05,0.39,-0.13,0.26,-0.09,29.57,-28.98,-7.04,19216
0.46,-10.31,-0.32,-0.13,0.25,-0.13,29.28,-28.84,-7.22,19250
-0.31,-10.30,-0.53,0.12,0.41,-0.05,28.76,-28.98,-6.09,19285
-2.04,-10.22,-0.78,0.35,0.58,0.03,28.31,-28.00,-6.08,19319
-0.95,-9.68,-0.87,0.22,0.51,-0.09,27.36,-28.34,-5.35,19353
-0.14,-9.32,-0.86,0.04,0.47,-0.07,27.05,-27.48,-4.53,19387
1.24,-9.81,-0.38,-0.32,0.59,0.03,26.37,-26.82,-4.81,19421
0.15,-9.96,1.07,-0.10,0.56,0.01,25.50,-26.66,-4.30,19456
0.84,-10.25,0.47,-0.15,0.48,-0.11,25.05,-26.00,-3.67,19490
0.30,-9.88,-0.06,0.24,0.54,-0.04,23.78,-25.18,-4.46,19524
0.85,-9.54,-0.17,0.41,0.41,-0.03,23.33,-24.35,-3.51,19558
-0.53,-9.73,-0.15,0.61,0.43,-0.04,22.70,-23.40,-1.96,19592
0.68,-9.21,-0.66,0.22,0.32,-0.17,22.36,-22.11,-2.50,19626
0.43,-8.96,0.78,0.01,0.63,0.05,21.46,-21.60,-1.65,19661
-2.52,-10.28,3.19,-0.09,0.20,0.24,20.51,-21.34,-1.45,19695
-1.70,-10.47,2.06,-0.23,-0.74,-0.23,21.54,-21.35,-1.91,19729
0.26,-10.81,0.15,-0.41,-0.36,-0.14,21.67,-20.67,-2.31,19763
0.25,-10.32,-0.22,-0.01,-0.06,-0.23,22.13,-20.21,-2.46,19797
-0.22,-9.99,-0.09,0.11,-0.10,-0.33,21.67,-19.92,-2.34,19832
0.46,-9.41,0.26,0.24,-0.16,-0.44,22.86,-19.23,-2.98,19866
0.52,-9.56,-0.19,-0.06,0.16,-0.18,23.15,-18.63,-3.13,19900
-0.03,-9.86,-0.45,-0.29,0.23,-0.13,23.08,-18.36,-2.44,19934
0.58,-10.10,-0.92,-0.15,0.21,-0.22,23.22,-17.71,-2.24,19968
1.09,-10.58,-1.25,-0.01,0.24,-0.26,23.43,-16.91,-2.51,20002
0.96,-9.73,0.16,0.24,0.45,-0.22,23.76,-16.03,-2.41,20037
0.63,-9.43,1.12,0.15,0.46,0.08,23.79,-15.08,-2.56,20071
1.53,-9.77,0.92,-0.20,0.41,0.02,23.25,-14.18,-1.29,20105
3.05,-9.31,0.58,-0.10,0.34,-0.26,23.22,-13.52,-1.52,20139
-0.08,-9.88,0.32,-0.15,0.43,-0.07,23.44,-13.72,-1.20,20173
1.26,-9.71,-0.21,-0.35,0.27,-0.13,23.00,-12.83,-1.14,20208
1.68,-9.89,0.47,-0.19,0.28,-0.34,23.53,-12.45,-0.31,20242
2.05,-9.93,-0.46,-0.32,0.35,-0.26,23.50,-12.04,-0.12,20276
0.99,-10.05,-0.21,-0.08,0.71,-0.12,22.74,-12.10,0.53,20310
0.22,-9.64,0.54,0.05,0.56,0.10,22.36,-12.34,0.26,20344
0.10,-9.70,0.33,-0.02,0.43,0.12,22.99,-11.93,0.73,20378
2.24,-9.24,-0.62,-0.26,0.23,-0.14,23.34,-13.20,0.95,20413
0.56,-11.76,-1.03,-0.37,0.30,-0.09,23.46,-13.58,0.44,20447
0.63,-9.76,-0.52,-0.18,0.19,0.07,24.71,-14.41,1.17,20481
1.16,-9.87,0.13,-0.12,0.23,-0.00,24.48,-15.13,2.44,20515
0.73,-10.01,-0.35,-0.15,0.18,-0.07,25.77,-15.80,2.09,20549
0.83,-10.08,-0.92,-0.09,0.31,0.05,25.59,-16.25,1.53,20583
1.99,-9.59,-1.12,-0.02,0.29,-0.03,25.64,-16.35,2.82,20618
2.29,-9.28,-0.26,0.07,0.25,-0.20,25.96,-16.35,3.00,20652
0.89,-10.04,-0.15,0.10,0.24,-0.17,25.42,-16.59,3.27,20686
1.57,-9.64,-0.22,-0.06,0.42,-0.07,25.08,-16.47,3.54,20720
1.59,-9.60,-1.23,-0.09,0.23,-0.24,24.66,-16.00,3.01,20754
1.26,-9.45,-0.97,-0.23,0.32,-0.21,24.77,-15.99,4.11,20789
0.22,-10.24,0.10,-0.22,0.45,0.14,23.91,-16.21,4.68,20823
0.57,-9.49,-0.74,-0.11,0.35,0.07,23.68,-17.07,3.55,20857
1.64,-9.74,-0.70,-0.28,0.19,-0.14,23.47,-17.22,4.33,20891
1.36,-9.96,-1.20,-0.12,0.35,-0.09,22.98,-16.87,4.33,20925
-0.15,-10.08,-0.32,0.14,0.41,0.13,22.60,-17.41,4.00,20959
1.33,-9.41,-0.67,0.25,0.17,0.17,22.00,-16.60,4.08,20994
0.56,-9.96,-1.06,-0.08,0.16,0.10,22.27,-17.71,4.36,21028
0.52,-9.85,-1.22,-0.20,0.32,0.11,22.33,-17.76,5.10,21062
0.79,-9.91,-0.07,-0.43,0.23,0.11,21.63,-18.33,4.72,21096
1.26,-9.78,-0.27,-0.36,0.30,0.16,21.51,-18.27,5.48,21130
1.74,-9.32,-0.35,-0.37,0.23,0.12,21.31,-19.25,5.45,21165
0.43,-10.09,-0.95,-0.17,0.12,0.12,21.47,-19.76,5.58,21199
0.35,-10.25,-0.98,-0.04,0.00,0.10,21.89,-20.20,5.31,21233
2.12,-9.45,-1.00,-0.11,0.07,0.05,21.76,-20.15,4.55,21267
0.89,-9.98,-1.22,-0.14,-0.00,-0.07,21.92,-20.39,4.87,21301
1.66,-9.73,-1.68,-0.02,-0.04,-0.07,22.27,-21.05,4.68,21335
2.04,-9.43,-0.90,-0.05,-0.05,-0.20,22.46,-20.15,5.45,21370
1.52,-9.70,-0.90,0.01,-0.07,-0.17,23.17,-20.15,5.33,21404
1.71,-9.78,-0.99,-0.06,0.00,-0.18,23.40,-19.83,5.20,21438
0.90,-9.87,-1.51,-0.14,0.10,-0.07,23.79,-19.73,5.12,21472
1.08,-9.97,-1.14,-0.12,0.18,-0.01,23.68,-19.39,6.09,21506
1.52,-8.85,-1.01,-0.07,0.08,0.06,23.59,-19.47,5.86,21541
2.22,-9.16,-1.82,-0.65,-0.17,-0.28,23.50,-19.91,5.67,21575
1.39,-9.36,-1.79,-0.15,-0.19,-0.29,23.79,-19.70,5.45,21609
1.32,-9.83,-1.14,-0.08,0.16,-0.04,24.29,-20.17,6.09,21643
1.60,-9.64,-1.00,0.12,0.20,0.06,24.55,-20.49,5.60,21677
1.27,-9.85,-0.63,0.11,0.11,-0.04,24.74,-20.37,5.26,21711
1.24,-9.58,-1.62,0.31,-0.08,-0.09,25.39,-19.95,5.64,21746
1.32,-9.57,-1.77,0.41,-0.09,-0.02,26.22,-20.13,5.36,21780
1.88,-9.54,-1.25,0.44,-0.04,0.10,26.95,-20.51,5.63,21814
0.22,-9.67,-0.55,0.08,0.11,0.03,27.58,-20.32,5.26,21848
0.68,-9.68,-0.95,0.18,-0.05,0.04,27.36,-20.81,4.62,21882
0.89,-9.66,-0.80,0.09,0.13,0.10,27.90,-21.03,5.28,21916
1.05,-9.59,-0.87,-0.08,0.17,0.03,28.11,-21.08,4.98,21951
3.52,-8.24,-1.34,0.03,0.16,-0.01,28.28,-21.32,4.66,21985
1.28,-9.54,-0.55,-0.07,0.03,-0.06,27.43,-21.31,5.57,22019
1.92,-9.13,-0.75,-0.35,0.20,-0.12,27.77,-21.59,5.93,22053
1.00,-9.74,-0.89,-0.66,0.27,-0.14,27.19,-21.40,4.94,22087
0.61,-10.30,-1.37,-0.37,0.16,-0.11,27.58,-22.42,4.63,22122
-0.10,-10.57,-1.81,-0.32,0.24,0.08,27.46,-23.05,5.28,22156
0.40,-10.07,-1.51,0.37,0.04,0.13,27.45,-22.83,4.91,22190
1.24,-9.32,-1.46,0.11,-0.12,0.02,27.95,-24.03,4.62,22224
0.44,-9.49,-0.95,-0.02,-0.09,0.01,28.12,-24.32,5.03,22258
2.16,-9.38,-1.15,0.42,-0.35,0.03,28.35,-25.36,4.52,22292
1.43,-9.80,-0.77,0.14,0.12,0.13,28.84,-25.49,4.05,22327
1.84,-9.46,-0.94,0.48,0.05,0.17,28.28,-25.93,3.92,22361
0.98,-10.62,-0.83,0.55,-0.26,0.03,28.62,-26.16,4.28,22395
1.81,-8.77,-0.19,0.59,-0.22,0.11,28.84,-26.05,4.28,22429
1.71,-9.70,-0.79,0.05,0.04,0.12,28.52,-26.66,4.69,22463
0.76,-9.31,-1.07,-0.40,0.15,0.03,27.97,-26.72,4.03,22498
1.10,-9.65,-0.98,-1.09,0.09,-0.14,27.74,-27.38,3.39,22532
0.57,-10.78,-0.89,-0.10,0.11,-0.02,27.43,-28.12,3.92,22566
1.05,-9.36,0.01,0.26,-0.03,0.31,27.49,-28.52,2.76,22600
0.56,-10.09,-0.61,0.10,0.06,0.09,26.88,-28.60,3.33,22634
0.79,-9.84,-1.26,0.41,-0.09,0.11,26.82,-28.78,2.95,22668
1.13,-9.35,-0.95,0.38,0.16,0.16,26.57,-28.65,3.73,22703
0.33,-9.42,-0.22,0.37,0.29,0.26,25.80,-28.60,4.46,22737
0.97,-9.28,0.27,-0.37,0.28,0.01,24.50,-27.99,4.90,22771
0.07,-9.97,-0.60,-0.67,0.27,0.00,23.31,-27.33,5.00,22805
1.70,-10.09,-2.08,-0.52,0.13,-0.00,22.49,-27.39,4.87,22839
0.39,-10.27,-0.83,-0.17,0.13,-0.03,21.86,-27.43,4.93,22874
0.18,-10.02,-0.61,0.00,0.12,-0.06,22.38,-27.55,4.50,22908
0.97,-9.11,-0.65,-0.01,-0.05,0.04,21.65,-27.21,4.88,22942
1.81,-10.05,-0.98,-0.26,0.00,0.07,21.67,-27.30,5.06,22976
1.94,-9.47,-1.03,-0.28,0.14,0.02,21.21,-27.74,5.25,23010
0.07,-10.15,-0.93,0.01,0.08,-0.05,21.13,-27.70,4.69,23044
0.61,-9.76,-0.54,-0.03,0.05,0.00,20.86,-27.19,5.22,23079
0.68,-9.96,-0.64,-0.10,0.07,0.05,20.56,-27.23,5.35,23113
0.86,-9.93,-1.19,-0.20,0.10,-0.08,20.64,-27.14,5.25,23147
1.06,-10.06,-1.29,-0.06,0.08,-0.12,20.26,-26.48,5.38,23181
0.83,-9.67,-1.26,0.27,0.12,-0.02,20.01,-26.70,5.74,23215
0.82,-9.89,-0.77,0.27,0.04,0.02,20.01,-26.60,5.66,23250
1.14,-9.81,-1.21,0.27,0.02,0.03,20.18,-25.96,6.31,23284
-0.19,-10.57,-0.67,0.61,0.03,0.14,20.80,-25.87,6.02,23318
1.14,-9.30,-0.70,0.77,-0.14,0.19,20.84,-25.23,6.46,23352
0.88,-9.20,-0.18,-0.22,-0.03,0.09,21.19,-24.92,5.47,23386
1.39,-9.77,-0.17,-0.21,-0.06,0.12,20.80,-24.71,5.42,23420
0.49,-8.40,-0.90,-0.16,0.14,0.18,20.39,-24.98,5.83,23455
1.01,-9.52,-0.35,0.03,0.06,0.05,20.61,-24.54,5.83,23489
0.20,-12.43,1.27,0.10,0.19,-0.00,20.62,-24.54,5.85,23523
0.48,-10.27,-0.08,0.00,0.05,-0.16,19.92,-24.66,5.90,23557
0.68,-9.84,-0.16,-0.26,-0.02,-0.32,20.39,-24.32,5.22,23591
0.63,-9.91,-0.64,-0.32,0.10,-0.08,20.05,-23.59,5.70,23625
0.16,-10.08,-1.06,-0.04,0.13,0.18,19.75,-24.23,6.07,23660
0.14,-9.00,-1.20,0.11,-0.00,0.16,20.01,-24.01,5.83,23694
0.48,-9.29,-0.44,-0.17,0.09,0.11,20.23,-23.37,5.99,23728
1.52,-10.14,-0.78,-0.19,-0.11,-0.01,19.66,-23.52,6.05,23762
0.30,-10.07,0.06,0.15,-0.06,0.05,20.24,-23.33,5.32,23796
1.53,-9.70,-0.31,0.10,0.16,0.17,19.96,-23.85,4.69,23831
0.42,-9.75,-0.15,-0.06,0.17,0.06,19.98,-23.62,5.96,23865
0.91,-9.32,-0.80,-0.06,-0.05,-0.12,19.50,-23.40,4.87,23899
1.15,-9.63,-0.65,-0.19,0.06,-0.11,19.51,-22.76,5.33,23933
0.78,-9.87,-0.57,-0.09,0.19,-0.01,19.31,-22.48,4.74,23967
0.25,-9.18,-0.83,0.02,0.18,-0.06,19.06,-21.57,5.36,24001
0.74,-10.05,-0.73,-0.14,0.21,-0.02,19.41,-21.38,5.32,24036
-0.83,-9.75,-0.46,0.03,0.09,-0.04,18.53,-20.87,5.89,24070
0.40,-10.12,-0.98,0.08,0.01,0.03,19.03,-20.68,4.69,24104
0.91,-9.71,-0.89,-0.03,-0.15,-0.14,19.38,-20.43,5.04,24138
0.21,-9.54,-0.75,-0.05,-0.23,-0.16,19.63,-20.58,4.93,24172
0.42,-9.67,-0.77,-0.05,-0.19,-0.06,20.20,-20.17,4.56,24207
1.12,-9.80,-0.92,-0.10,-0.26,-0.26,21.12,-19.89,4.46,24241
0.95,-9.57,-0.94,-0.02,-0.19,-0.31,20.83,-19.88,4.91,24275
0.29,-10.05,-1.09,-0.03,-0.03,-0.12,21.28,-19.44,4.98,24309
0.84,-9.78,-0.50,0.15,0.01,0.06,20.94,-19.42,4.81,24343
1.05,-9.17,-0.62,0.02,0.05,-0.11,21.03,-18.87,4.44,24377
1.03,-9.24,-0.97,-0.26,0.13,-0.17,21.16,-18.24,5.31,24412
-0.30,-10.64,-0.35,-0.18,0.25,0.10,21.34,-19.03,5.17,24446
0.41,-9.80,-0.26,-0.13,0.19,0.07,21.57,-19.01,4.65,24480
-0.85,-9.94,-0.44,0.11,0.23,0.24,21.54,-18.24,4.46,24514
0.25,-10.19,-0.78,0.30,0.31,0.39,21.57,-18.69,4.81,24548
0.49,-9.75,-0.97,0.30,0.10,0.11,21.56,-17.92,5.32,24583
0.89,-9.78,-0.41,0.58,-0.21,-0.11,21.81,-17.03,5.48,24617
1.89,-9.25,0.30,0.31,-0.34,-0.22,23.05,-16.27,6.31,24651
-0.87,-10.76,0.01,-0.19,-0.18,-0.17,23.28,-17.36,5.76,24685
0.43,-9.11,0.00,-0.11,-0.03,-0.15,23.79,-17.41,5.86,24719
1.59,-9.94,-0.62,-0.02,0.03,-0.12,24.41,-17.47,5.92,24753
0.05,-9.90,-0.35,0.05,0.06,-0.17,24.70,-17.64,5.63,24788
1.63,-9.37,-0.15,0.05,0.07,-0.15,25.23,-16.66,6.04,24822
1.66,-9.43,-0.67,-0.28,0.11,-0.13,24.85,-16.57,6.18,24856
0.78,-9.63,-0.61,-0.17,0.03,-0.23,24.76,-16.72,7.09,24890
0.21,-9.97,-0.08,-0.28,0.10,-0.09,25.37,-17.16,6.72,24924
0.66,-10.04,-0.42,-0.25,0.14,0.00,25.45,-17.60,6.74,24958
0.47,-9.82,-1.00,-0.14,0.03,-0.02,25.48,-18.23,7.57,24993
1.76,-9.68,-0.86,-0.18,0.01,-0.02,25.56,-18.56,7.09,25027
1.54,-8.79,-0.51,-0.50,0.07,0.01,25.40,-18.99,6.88,25061
0.43,-10.52,-0.80,-1.00,0.04,0.17,26.03,-20.99,6.77,25095
1.19,-10.50,-1.47,-0.70,0.02,0.16,26.62,-22.57,6.71,25129
0.49,-9.93,-2.32,-0.09,0.11,0.13,26.45,-23.02,6.55,25164
0.58,-9.38,-1.64,0.10,-0.01,-0.01,26.60,-23.31,6.59,25198
1.04,-9.51,-1.32,0.05,-0.08,-0.02,26.64,-23.08,7.10,25232
0.74,-9.91,-0.89,0.19,0.01,0.24,26.41,-22.73,7.44,25266
0.48,-9.55,-1.84,0.20,-0.03,0.12,26.64,-22.80,7.56,25300
0.62,-9.33,-2.82,0.40,0.06,0.17,26.22,-22.73,6.07,25334
0.84,-9.46,-1.75,0.09,0.00,0.05,26.44,-22.55,7.13,25369
-1.22,-9.84,-1.65,-0.14,0.16,0.16,25.99,-22.90,6.69,25403
-1.69,-11.06,-1.71,-0.46,0.71,0.68,25.86,-23.34,7.26,25437
0.36,-9.93,-1.35,-0.14,1.14,0.66,23.81,-24.47,8.39,25471
2.64,-8.85,-2.98,0.11,1.43,0.51,22.32,-25.80,9.43,25505
2.48,-9.19,1.68,0.20,1.00,0.54,19.98,-25.59,9.56,25540
3.63,-10.08,-0.80,-0.23,0.81,0.08,18.80,-25.75,10.83,25574
4.34,-9.93,-0.54,-0.24,1.27,-0.04,17.51,-26.62,11.49,25608
3.17,-9.13,-1.97,-0.13,2.41,0.30,14.98,-27.19,12.79,25642
1.39,-8.84,0.65,-0.10,2.95,0.62,10.93,-27.48,13.48,25676
0.46,-9.64,0.57,-0.64,2.75,0.56,6.39,-28.73,13.40,25710
1.01,-10.22,-1.25,-0.71,2.10,0.38,3.05,-29.04,13.81,25745
1.01,-10.63,-0.88,-0.42,1.74,0.33,-0.13,-28.97,14.32,25779
1.84,-9.40,-2.66,0.02,1.96,0.44,-3.35,-29.01,13.71,25813
1.59,-9.13,-2.89,-0.16,2.39,0.37,-6.18,-28.87,12.93,25847
1.03,-9.46,-2.06,-0.41,2.52,0.39,-10.06,-29.45,12.22,25881
0.91,-9.76,-1.46,-0.56,2.59,0.47,-13.50,-29.79,10.99,25916
0.09,-10.08,-1.01,-0.51,2.50,0.51,-16.57,-30.25,9.18,25950
-1.23,-10.48,-0.89,-0.14,2.26,0.54,-19.79,-29.74,7.13,25984
-0.52,-9.88,-1.69,0.11,1.68,0.39,-21.69,-29.49,5.58,26018
0.17,-9.40,-2.98,0.28,1.66,0.37,-24.31,-28.41,5.22,26052
0.49,-8.94,-3.40,0.31,1.90,0.30,-26.03,-28.11,3.08,26086
-0.17,-9.29,-1.98,0.04,2.25,0.31,-28.05,-27.48,1.45,26121
-1.36,-9.61,-1.71,-0.04,2.10,0.28,-31.03,-27.33,-0.19,26155
-0.90,-9.58,-0.88,-0.06,1.95,0.27,-32.59,-26.95,-3.90,26189
-1.06,-9.74,-0.93,0.15,1.85,0.38,-33.88,-26.02,-5.89,26223
-1.36,-10.10,-0.05,0.32,1.30,0.29,-35.44,-25.31,-6.65,26257
2.38,-9.28,-0.47,0.25,0.88,0.11,-36.03,-24.98,-7.32,26291
2.04,-9.32,-3.95,0.04,1.96,0.27,-37.43,-24.69,-10.45,26326
-1.19,-10.24,-1.83,-0.14,2.54,0.36,-38.53,-24.01,-13.37,26360
-0.84,-10.49,0.22,-0.25,1.62,0.11,-39.94,-23.40,-16.54,26394
0.81,-9.27,-0.48,-0.04,1.06,0.07,-40.54,-23.17,-17.89,26428
1.23,-9.24,-2.82,0.03,1.50,0.22,-41.14,-22.99,-19.41,26462
-0.63,-9.89,-3.32,-0.26,2.57,0.50,-41.07,-22.33,-22.71,26497
0.32,-10.15,-0.66,-0.43,2.32,0.31,-42.17,-21.46,-26.19,26531
-0.38,-9.85,-1.66,-0.07,1.77,0.03,-42.63,-21.10,-29.28,26565
0.35,-9.48,-1.69,0.15,1.75,0.16,-42.25,-20.91,-32.33,26599
0.12,-9.54,-2.49,0.06,2.12,0.31,-41.65,-21.29,-34.71,26633
1.46,-9.33,-2.19,-0.68,2.35,0.32,-40.78,-20.62,-38.35,26667
1.56,-9.49,-1.23,-0.68,2.41,0.19,-39.45,-20.43,-40.88,26702
0.54,-8.62,-1.94,-0.49,2.07,-0.23,-38.69,-20.14,-44.45,26736
-2.70,-12.09,-2.39,-0.30,1.55,-0.29,-37.30,-19.32,-47.22,26770
-0.66,-9.94,-3.76,-0.10,0.85,-0.83,-36.89,-21.13,-48.00,26804
0.92,-7.41,-7.75,-0.68,1.44,-0.99,-35.06,-21.97,-50.94,26838
-1.48,-9.69,-5.97,-1.60,3.44,-0.37,-32.93,-21.00,-53.64,26873
-1.33,-10.05,-2.46,-1.85,3.71,-0.19,-29.71,-19.58,-58.17,26907
-4.63,-11.68,-1.67,-1.55,2.48,-0.19,-26.07,-17.45,-61.27,26941
-5.13,-11.56,-1.17,-1.14,1.39,-0.26,-24.23,-16.72,-62.80,26975
-3.63,-10.19,-1.76,-0.78,0.57,0.06,-23.36,-15.52,-63.15,27009
-2.96,-10.23,-1.95,-0.80,0.86,0.59,-22.41,-14.72,-63.72,27043
-2.02,-10.54,-1.87,-0.87,1.38,0.94,-20.86,-13.34,-63.96,27078
-3.60,-11.29,-1.15,-0.75,1.91,1.11,-17.90,-11.82,-65.78,27112
-2.73,-10.96,0.27,-0.49,1.66,0.89,-15.19,-10.99,-66.18,27146
-0.97,-9.60,0.53,-0.22,1.35,0.62,-13.53,-10.46,-67.44,27180
-3.84,-7.04,-0.46,0.50,1.98,-0.61,-11.50,-11.56,-67.99,27214
4.73,-1.90,-0.54,-0.03,2.17,-0.13,-8.49,-11.55,-68.62,27249
5.36,-12.19,-0.76,-0.65,2.11,0.44,-5.41,-11.05,-69.53,27283
4.95,-11.09,3.06,0.56,0.36,-0.85,-4.69,-11.74,-69.58,27317
9.36,-6.03,-4.52,0.36,-0.23,-1.33,-4.93,-13.17,-69.26,27351
5.13,-8.63,-1.45,0.00,0.81,-1.09,-4.11,-14.09,-70.27,27385
3.88,-6.76,-1.18,0.03,0.49,-0.88,-3.99,-14.43,-70.21,27419
4.20,-10.40,-1.10,0.32,0.54,-0.38,-3.29,-15.07,-70.13,27454
2.44,-11.27,-1.61,0.54,0.27,0.01,-3.20,-15.95,-69.96,27488
2.29,-10.63,0.36,0.62,0.25,0.23,-3.24,-16.09,-69.60,27522
2.42,-8.75,-1.57,0.71,0.05,0.32,-3.54,-17.48,-69.82,27556
3.42,-8.60,-2.30,0.75,-0.06,0.45,-4.02,-18.52,-69.34,27590
4.55,-8.94,-1.81,0.78,-0.10,0.52,-4.55,-19.29,-68.97,27625
6.10,-4.10,-2.39,0.88,0.20,0.53,-5.20,-20.05,-69.61,27659
6.94,-6.70,-2.44,0.86,0.05,0.42,-5.70,-21.02,-68.61,27693
10.04,-3.97,-0.44,0.99,-0.19,-0.05,-5.98,-21.62,-67.74,27727
10.93,-5.22,-1.84,1.06,-0.23,-0.78,-6.07,-23.57,-67.90,27761
9.63,-4.74,-3.83,0.46,0.58,-1.18,-5.99,-25.27,-68.04,27795
9.69,-9.35,-3.18,0.03,1.06,-0.78,-4.05,-25.23,-67.99,27830
10.19,-15.55,-1.90,0.17,2.33,0.23,-2.02,-24.96,-67.76,27864
-3.85,-21.56,-9.74,0.90,4.46,1.03,3.79,-25.40,-66.81,27898
-5.69,-24.73,-16.35,1.08,4.13,0.52,8.84,-25.55,-66.19,27932
18.68,-14.31,5.04,2.57,1.54,-1.28,12.19,-26.86,-63.99,27966
10.95,-16.33,-6.53,0.08,0.16,-4.58,14.32,-26.40,-62.35,28000
2.59,-13.55,2.99,1.76,-1.98,-4.13,14.63,-25.74,-62.03,28035
-3.03,-5.42,-2.72,1.53,-2.67,-2.70,12.58,-25.67,-61.50,28069
3.82,-1.77,-4.20,1.19,-3.82,-2.10,10.11,-25.97,-62.41,28103
6.00,-0.62,-1.87,0.55,-3.25,-0.67,6.78,-26.19,-61.90,28137
3.59,-1.67,0.73,0.77,-2.38,0.71,4.37,-27.64,-61.63,28171
5.09,-1.48,1.00,0.87,-2.19,1.60,1.68,-28.49,-60.83,28206
5.00,-2.72,-0.12,1.04,-2.49,2.58,-2.62,-30.53,-59.65,28240
2.60,-5.60,-0.94,1.44,-3.13,3.25,-6.77,-31.92,-59.72,28274
3.72,-7.26,-2.56,1.76,-4.04,3.16,-11.66,-33.10,-56.78,28308
6.25,-8.78,-2.94,1.93,-4.38,3.03,-18.53,-33.81,-52.84,28342
7.72,-9.52,-4.67,1.85,-5.04,2.61,-22.65,-33.79,-48.13,28376
10.85,-6.61,-7.27,1.46,-4.29,1.92,-27.70,-34.48,-43.29,28411
-5.86,-3.31,-14.03,0.42,-0.20,2.04,-31.25,-33.25,-39.67,28445
-2.90,-2.34,-2.82,-1.68,0.64,-0.24,-31.53,-33.78,-40.47,28479
6.10,-12.50,-2.64,-1.00,0.18,-0.13,-32.27,-32.97,-41.22,28513
1.18,-12.49,-1.69,-0.39,-0.01,0.19,-33.22,-32.77,-40.72,28547
7.45,-6.95,-2.31,-0.24,-0.05,0.12,-33.57,-32.29,-40.60,28582
6.79,-8.19,-4.07,-0.20,-0.05,0.49,-34.64,-31.19,-38.51,28616
8.42,-6.52,-1.55,-0.24,0.07,0.44,-35.33,-29.82,-37.80,28650
7.96,-5.58,-1.17,-0.15,0.26,-0.04,-35.72,-28.09,-37.72,28684
2.29,-8.85,-3.54,-0.29,0.43,-0.21,-35.81,-27.58,-38.28,28718
5.22,-7.44,-4.08,-0.02,0.43,-0.13,-35.55,-26.56,-38.31,28752
2.66,-8.81,-2.65,-0.22,0.61,-0.00,-35.36,-25.21,-38.98,28787
0.67,-9.48,-1.58,-0.27,0.65,0.10,-34.04,-24.10,-40.25,28821
1.65,-9.61,-1.86,-0.29,0.69,0.28,-33.70,-23.03,-42.03,28855
1.14,-10.79,-1.07,-0.25,0.96,0.60,-32.93,-21.92,-42.69,28889
-0.37,-9.96,-1.16,-0.14,1.01,0.75,-32.42,-21.12,-43.70,28923
3.96,-11.22,-2.79,0.04,1.05,0.84,-31.29,-19.19,-45.18,28958
1.66,-13.26,-2.97,0.11,0.86,0.51,-30.39,-18.72,-47.06,28992
5.45,-6.70,-1.66,0.43,0.79,0.21,-28.98,-18.65,-47.98,29026
1.47,-8.02,-3.73,0.44,0.81,-0.22,-27.84,-19.31,-48.60,29060
3.26,-7.43,-3.08,0.54,0.59,-0.66,-27.08,-19.58,-48.63,29094
5.09,-7.15,-1.23,0.57,0.88,-0.90,-24.95,-21.31,-49.28,29128
5.76,-7.02,-1.87,0.43,0.65,-1.02,-23.43,-23.06,-49.52,29163
3.69,-8.67,0.99,0.42,0.82,-0.90,-21.78,-23.94,-50.15,29197
5.01,-9.57,-0.89,0.57,0.81,-0.85,-19.64,-25.61,-50.45,29231
8.74,-8.21,-2.88,0.92,1.07,-0.76,-17.86,-27.77,-51.89,29265
-0.24,-14.30,-7.38,0.92,1.44,-0.49,-15.77,-29.74,-52.73,29299
-2.73,-11.31,-10.94,0.91,1.63,-0.55,-13.27,-32.53,-53.57,29333
2.14,-15.53,-11.54,0.69,2.38,-0.52,-11.69,-34.39,-54.25,29368
8.13,-6.43,-5.07,0.93,3.26,-0.46,-9.25,-37.42,-55.35,29402
-1.85,-10.02,-7.35,0.25,0.98,-1.34,-7.76,-38.45,-56.21,29436
-2.11,-5.79,-4.00,0.36,-1.72,-1.30,-8.62,-39.71,-57.07,29470
1.08,-4.66,-4.73,0.09,-3.17,-0.59,-13.18,-38.50,-56.15,29504
2.09,-3.89,-3.59,0.11,-3.75,0.98,-16.95,-36.54,-54.37,29539
3.58,-5.44,-2.71,0.13,-3.28,2.56,-21.28,-34.43,-50.48,29573
8.01,-10.82,4.27,-0.35,-2.05,3.49,-24.41,-32.34,-48.36,29607
5.48,-12.20,-1.68,-0.01,-3.37,3.05,-27.17,-29.71,-45.10,29641
8.10,-11.74,-7.88,0.56,-4.56,2.15,-31.96,-28.16,-40.34,29675
4.42,-11.33,-4.93,1.46,-4.72,0.21,-33.84,-27.49,-35.28,29709
11.75,-4.73,-4.01,0.06,-2.11,-0.55,-35.46,-28.87,-29.09,29744
4.00,-5.32,-1.42,-0.29,-0.48,-0.33,-35.24,-29.36,-27.96,29778
4.59,-11.10,-1.97,-0.29,-0.75,-0.71,-35.82,-30.18,-28.22,29812
6.45,-9.07,-3.11,-1.03,-0.25,-0.58,-35.53,-31.03,-26.98,29846
2.91,-8.54,0.40,-0.92,0.92,0.24,-36.25,-30.25,-29.03,29880
8.54,-10.29,-1.35,-0.94,0.25,0.05,-36.09,-28.91,-28.81,29915
2.18,-10.18,-0.22,-0.97,0.02,0.10,-35.36,-28.65,-30.21,29949
1.59,-8.29,-0.80,-0.90,0.52,0.51,-35.14,-27.39,-31.82,29983
4.16,-11.20,-1.50,-1.11,0.99,1.20,-34.38,-26.06,-33.57,30017
6.45,-11.11,-1.26,-1.12,1.83,1.56,-33.54,-25.02,-35.88,30051
5.20,-11.23,3.32,-1.03,3.04,1.67,-33.00,-22.64,-40.38,30085
2.77,-12.69,2.38,-0.51,2.65,0.96,-31.92,-21.91,-44.26,30120
0.83,-11.05,-0.53,-0.20,2.32,0.59,-30.78,-21.62,-47.33,30154
-0.21,-12.66,-3.73,0.23,2.15,0.43,-29.61,-21.98,-49.36,30188
1.59,-10.14,-2.57,0.37,2.10,0.10,-28.33,-22.48,-52.05,30222
-1.45,-10.34,-1.15,0.64,1.55,-0.30,-27.68,-23.93,-54.15,30256
-0.08,-10.31,-1.38,1.18,0.30,-1.21,-27.01,-26.69,-54.62,30291
-0.83,-10.60,-3.20,1.30,0.06,-1.00,-27.14,-28.56,-54.25,30325
-2.17,-12.51,-4.92,1.45,-0.18,-0.78,-27.55,-30.97,-53.70,30359
-7.31,-6.94,-10.48,1.95,-1.14,-0.82,-28.54,-33.05,-52.62,30393
-3.81,-12.75,-10.10,2.19,-1.93,0.30,-30.81,-33.65,-48.99,30427
-7.44,-8.84,-6.77,2.82,-3.69,0.30,-33.66,-34.48,-42.40,30461
-0.34,-10.02,-12.84,2.51,-5.95,0.04,-35.71,-34.16,-33.66,30496
4.52,-8.65,-16.25,1.56,-4.47,0.26,-36.13,-33.50,-25.96,30530
0.30,-9.70,-6.89,0.58,-1.71,1.40,-36.29,-31.57,-23.66,30564
7.22,-6.40,-7.46,0.30,-2.37,1.27,-35.98,-29.80,-20.89,30598
5.21,-7.86,-7.01,-0.31,-2.05,1.20,-35.21,-28.44,-17.79,30632
7.50,-6.54,-3.68,-0.83,-1.08,0.67,-34.42,-27.93,-16.73,30666
3.28,-5.54,-1.56,-0.82,-0.93,0.49,-34.30,-27.74,-15.76,30701
3.19,-11.08,-1.56,-1.08,-0.56,0.39,-34.01,-28.56,-14.43,30735
7.28,-10.41,-1.29,-1.30,-0.25,0.52,-34.60,-28.85,-14.37,30769
0.13,-10.77,-1.58,-1.11,0.81,0.54,-35.65,-28.94,-15.30,30803
1.03,-9.21,0.69,-1.30,1.64,0.77,-36.93,-28.88,-18.18,30837
0.89,-10.94,2.37,-1.30,1.62,0.59,-38.21,-28.53,-20.17,30872
3.40,-8.15,0.66,-1.12,1.46,0.58,-39.52,-28.49,-22.73,30906
0.59,-11.96,1.17,-1.07,2.70,1.38,-41.27,-26.32,-25.55,30940
-2.37,-13.71,2.60,-0.94,2.90,1.48,-42.55,-23.06,-30.02,30974
-0.26,-13.09,-0.18,-0.57,1.86,1.54,-43.15,-20.34,-32.68,31008
1.06,-11.82,-0.68,-0.39,2.66,1.58,-42.91,-18.01,-35.37,31042
0.69,-11.92,1.21,-0.37,2.89,1.64,-42.58,-14.32,-39.73,31077
2.17,-12.74,0.70,-0.22,2.45,1.05,-41.48,-11.90,-43.25,31111
4.49,-10.07,-0.10,-0.13,2.65,1.29,-39.70,-9.98,-46.13,31145
5.70,-11.89,-0.05,-0.07,3.01,1.55,-37.42,-6.93,-50.25,31179
1.71,-13.74,0.86,0.17,3.45,1.45,-33.88,-4.65,-52.78,31213
4.99,-10.57,0.78,0.61,2.93,0.65,-29.90,-4.25,-56.24,31248
-0.13,-10.69,-1.46,1.13,2.07,-0.13,-27.59,-5.16,-58.81,31282
-0.85,-10.99,-4.18,1.67,0.26,-0.54,-26.32,-6.74,-59.62,31316
-7.29,-10.66,-6.01,2.08,-0.47,-0.73,-26.95,-9.40,-58.39,31350
-9.98,-6.91,-8.92,2.55,-1.91,-0.93,-28.22,-12.42,-56.30,31384
-8.08,-6.02,-14.04,2.71,-3.43,-0.84,-30.40,-15.80,-52.21,31418
-9.01,-3.30,-18.63,2.84,-5.35,-1.15,-33.38,-19.07,-46.17,31453
-11.26,-8.93,-17.21,2.34,-6.61,-0.78,-34.98,-21.02,-38.60,31487
-3.24,-11.36,-16.78,1.22,-6.99,-0.70,-35.36,-23.37,-28.31,31521
0.29,-9.17,-12.42,0.49,-5.39,-0.40,-33.62,-24.57,-22.17,31555
11.43,-10.81,-10.85,-0.27,-2.87,-0.13,-32.51,-26.41,-17.68,31589
7.56,-12.31,-4.02,-0.19,-1.09,-0.51,-31.31,-27.78,-16.12,31624
7.90,-5.63,-8.31,-0.05,-2.55,0.56,-30.04,-28.34,-13.08,31658
12.35,-5.88,-6.60,-0.97,-1.55,1.78,-29.71,-27.76,-11.24,31692
16.55,-7.93,-2.47,-1.56,-0.08,1.64,-30.72,-27.52,-11.40,31726
13.55,-8.88,6.54,-2.31,1.76,1.29,-32.45,-27.64,-13.83,31760
5.31,-11.36,0.88,-2.07,3.14,0.64,-34.61,-27.96,-17.86,31794
2.29,-11.55,-1.31,-2.57,5.30,2.24,-36.58,-26.54,-24.38,31829
-2.32,-15.67,5.50,-1.61,5.52,2.98,-39.04,-22.30,-33.76,31863
3.89,-14.24,-0.69,-0.97,5.91,3.05,-38.57,-18.30,-40.98,31897
-2.58,-15.50,3.27,-0.34,5.96,2.76,-35.66,-14.16,-52.22,31931
4.74,-11.80,-2.29,0.61,3.87,1.34,-32.64,-11.98,-54.75,31965
-1.42,-10.67,-5.30,1.29,2.81,0.24,-30.47,-12.67,-57.31,32000
-2.50,-1.77,-9.46,2.00,0.62,-1.06,-29.87,-15.58,-58.48,32034
-8.82,-7.59,-10.77,2.59,-2.19,-0.96,-31.60,-17.58,-55.69,32068
-9.44,-6.90,-9.68,2.94,-4.11,-1.34,-35.18,-21.13,-50.85,32102
-13.00,-6.45,-15.60,2.49,-7.32,-0.60,-39.84,-22.92,-39.18,32136
-5.07,-5.46,-20.04,1.53,-6.67,0.14,-40.69,-22.19,-28.78,32170
2.26,-0.50,-20.80,0.87,-5.45,0.38,-39.54,-20.64,-19.12,32205
24.28,-16.18,-2.54,-0.54,-3.49,-0.66,-37.77,-20.18,-14.78,32239
6.00,-6.50,-6.34,-0.43,-3.72,-0.47,-35.88,-20.67,-12.25,32273
12.98,-7.20,-7.95,-0.88,-2.40,0.96,-32.75,-20.43,-8.55,32307
17.00,-8.21,2.04,-2.09,-0.16,1.69,-32.17,-19.80,-9.18,32341
16.69,-9.31,4.15,-2.50,2.32,1.00,-32.86,-19.57,-13.36,32375
8.55,-9.77,4.05,-2.68,5.05,1.41,-34.39,-19.60,-19.82,32410
1.08,-12.34,5.88,-2.15,6.45,2.08,-35.50,-17.87,-27.29,32444
-3.75,-14.65,-2.75,-1.05,6.22,2.72,-34.36,-14.50,-36.77,32478
-7.70,-17.53,-7.50,-0.49,6.44,3.10,-31.56,-11.66,-44.49,32512
6.09,-5.82,-9.15,-0.01,4.67,1.94,-27.57,-10.87,-50.23,32546
-10.80,-17.86,2.17,0.12,4.89,2.26,-23.69,-9.30,-54.27,32581
2.89,-7.10,-3.89,2.63,-3.31,-0.41,-25.17,-10.98,-53.48,32615
7.37,-1.96,-18.56,2.74,-2.86,-0.56,-29.61,-14.28,-50.29,32649
-7.61,-10.20,-4.65,1.81,-0.55,-1.38,-30.69,-17.00,-49.52,32683
-6.56,-8.02,-6.41,2.11,-4.39,-2.14,-32.87,-21.06,-43.92,32717
-13.29,-7.83,-5.36,2.24,-4.47,-1.11,-35.18,-23.19,-37.58,32751
-4.06,-8.45,-9.68,2.16,-6.00,-1.11,-36.55,-24.28,-28.88,32786
2.74,-9.63,-17.99,1.73,-7.12,-1.25,-35.17,-24.71,-18.09,32820
-3.63,-9.60,-15.67,0.64,-4.75,-0.24,-32.29,-25.14,-11.59,32854
-2.58,-10.52,-7.97,0.39,-5.09,-0.23,-28.31,-25.33,-4.47,32888
3.55,-6.98,-13.13,-0.30,-3.33,0.33,-24.20,-25.72,-1.68,32922
7.34,-5.49,-10.56,-1.20,-2.13,1.08,-22.17,-26.64,-0.75,32957
13.80,-5.81,-1.26,-2.71,0.49,1.80,-22.27,-27.70,-2.65,32991
8.55,-11.86,7.17,-2.64,1.94,1.61,-24.55,-28.21,-5.39,33025
7.89,-7.72,-0.37,-3.07,3.98,1.63,-26.94,-29.28,-10.20,33059
2.64,-11.90,5.15,-3.41,7.35,3.41,-31.53,-28.46,-21.15,33093
-6.33,-18.74,7.21,-2.82,7.17,3.57,-33.76,-24.86,-30.17,33127
-6.28,-22.47,-0.48,-1.42,6.77,4.17,-33.84,-20.18,-39.97,33162
-1.69,-19.26,-10.06,-0.74,6.54,4.54,-31.63,-15.20,-46.74,33196
-4.87,-18.45,-2.56,-0.09,5.51,4.00,-27.02,-10.74,-52.81,33230
1.28,-19.08,5.07,0.94,4.73,2.89,-21.12,-8.90,-57.47,33264
2.23,-11.03,4.74,1.62,2.00,1.27,-19.31,-9.66,-59.66,33298
13.04,-5.34,-10.13,3.03,-1.60,0.37,-19.72,-11.25,-59.35,33333
-0.11,0.19,-17.54,3.01,-1.20,-1.79,-21.27,-15.10,-59.44,33367
-7.22,-7.56,-4.80,2.69,-1.98,-1.63,-23.17,-19.83,-57.38,33401
-11.32,-8.39,-5.66,3.53,-6.41,-1.86,-28.06,-25.43,-51.10,33435
-9.54,-0.73,-22.21,2.99,-6.98,-1.53,-32.78,-29.00,-43.03,33469
-9.33,-7.50,-22.67,2.24,-7.62,-1.11,-36.28,-31.92,-32.93,33503
-5.62,-9.58,-19.63,1.50,-7.73,-0.49,-37.26,-32.43,-19.64,33538
5.88,-8.60,-12.30,0.51,-5.45,-0.22,-35.56,-32.75,-10.64,33572
11.24,-10.36,-9.24,-0.30,-3.69,-0.24,-33.44,-31.96,-4.91,33606
5.19,-7.11,-4.98,-0.83,-1.86,0.12,-32.64,-31.44,-2.43,33640
7.05,-6.72,-2.54,-1.47,-1.27,1.09,-31.88,-30.43,-2.12,33674
10.38,-10.13,6.62,-2.31,0.93,1.69,-33.31,-28.87,-3.54,33708
9.15,-9.40,1.17,-1.96,2.77,1.72,-35.59,-27.02,-7.29,33743
6.37,-10.24,0.22,-2.11,4.81,2.17,-38.76,-24.17,-15.07,33777
-0.63,-13.47,0.99,-1.92,5.77,2.20,-41.03,-21.05,-22.95,33811
-1.26,-15.74,0.81,-1.43,5.40,2.60,-41.17,-17.03,-30.62,33845
2.26,-12.29,0.81,-0.87,4.91,2.42,-38.88,-12.69,-38.61,33879
2.34,-12.85,-4.53,-0.50,5.68,2.21,-35.50,-9.32,-44.18,33914
-1.55,-15.26,5.49,-0.32,5.78,2.52,-29.38,-6.85,-51.27,33948
1.96,-15.95,3.59,0.83,3.12,1.57,-25.07,-6.50,-55.14,33982
6.29,-2.04,-9.51,1.80,2.35,0.49,-22.99,-7.83,-56.55,34016
-3.68,-5.34,-13.91,2.27,0.66,0.24,-21.05,-9.75,-58.27,34050
-9.49,-4.78,-15.89,3.24,-2.34,-1.52,-22.20,-14.57,-57.63,34084
-13.69,-5.87,-10.60,4.04,-6.14,-1.30,-26.22,-20.43,-51.89,34119
-16.42,-5.63,-23.04,4.01,-10.57,-1.60,-32.72,-24.76,-40.40,34153
-2.60,-5.15,-32.81,2.57,-9.88,-0.73,-34.87,-27.49,-26.25,34187
13.85,-8.56,-17.56,0.65,-6.48,-0.12,-33.67,-28.30,-15.86,34221
9.06,-8.92,0.04,-0.14,-1.86,0.92,-32.58,-28.49,-12.55,34255
4.86,-6.77,-1.97,-0.30,-3.05,0.46,-31.09,-27.30,-8.68,34290
12.74,-6.31,-5.33,-1.33,-1.08,1.16,-30.69,-26.63,-7.02,34324
11.14,-7.98,-2.20,-1.83,0.54,1.07,-31.18,-26.51,-7.70,34358
8.23,-8.88,2.26,-1.96,1.86,0.78,-32.21,-26.51,-10.36,34392
5.09,-9.96,3.59,-2.16,2.81,1.30,-34.35,-26.57,-14.86,34426
2.76,-10.72,2.49,-1.92,4.52,2.59,-36.70,-24.85,-19.99,34460
-1.26,-14.23,3.98,-1.61,6.28,3.26,-38.23,-19.83,-29.51,34495
-6.25,-15.18,3.08,-0.86,5.25,3.05,-37.58,-16.30,-36.41,34529
-3.25,-15.62,-7.77,0.11,4.15,2.50,-36.39,-12.85,-41.99,34563
4.17,-13.95,-1.00,-0.05,5.69,2.17,-33.05,-10.14,-48.74,34597
0.09,-13.53,8.84,0.50,3.81,1.09,-29.45,-9.12,-52.98,34631
6.97,-14.68,-2.82,1.49,0.82,-0.07,-27.30,-10.39,-53.86,34666
3.28,-8.07,-12.86,1.68,0.72,-0.53,-26.53,-12.98,-55.66,34700
-9.94,-7.40,-12.67,1.82,0.33,-1.06,-26.88,-15.77,-56.34,34734
-10.85,-8.19,-5.90,2.44,-2.31,-1.26,-28.81,-19.31,-54.84,34768
-9.67,-8.29,-4.02,2.64,-4.24,-0.91,-31.92,-22.52,-50.63,34802
-9.11,-9.55,-18.30,2.56,-7.07,-0.94,-37.66,-25.31,-40.22,34836
0.60,-5.99,-17.53,1.48,-5.64,-0.25,-39.70,-25.77,-30.93,34871
-2.04,-6.32,-10.64,0.72,-5.04,-0.39,-40.43,-25.33,-23.60,34905
3.90,-11.36,-3.69,0.17,-3.82,-0.55,-38.37,-24.80,-16.82,34939
-4.89,-9.77,-4.97,-0.18,-3.20,0.60,-36.50,-24.52,-12.26,34973
5.62,-6.68,-9.56,-0.39,-3.53,0.53,-33.40,-23.76,-8.17,35007
11.88,-8.34,-4.82,-1.58,-0.75,0.98,-31.29,-23.21,-7.42,35041
8.45,-9.38,1.26,-1.74,0.78,0.91,-31.98,-23.36,-8.67,35076
4.74,-10.84,5.82,-2.08,2.90,1.23,-32.91,-23.15,-13.37,35110
1.84,-14.62,4.57,-2.11,4.53,2.03,-34.74,-22.77,-18.99,35144
5.34,-13.82,4.84,-1.86,5.28,2.51,-36.55,-20.37,-27.13,35178
2.01,-14.80,6.43,-1.38,6.87,3.13,-36.22,-17.06,-34.98,35212
-1.07,-17.06,-0.52,-0.39,5.24,2.55,-34.73,-14.05,-42.21,35247
-0.77,-16.15,-4.02,0.20,4.70,2.08,-31.15,-11.69,-47.81,35281
-0.50,-11.72,-6.05,1.10,2.86,0.70,-29.10,-11.31,-51.32,35315
2.78,-6.58,-7.74,1.60,1.71,-0.31,-26.85,-12.44,-53.39,35349
-2.79,-6.68,-8.65,1.94,-0.08,-0.36,-27.20,-13.83,-53.99,35383
-2.18,-5.18,-9.01,2.23,-3.19,-1.23,-28.68,-16.81,-51.80,35417
-7.24,-5.25,-7.25,2.12,-3.73,-1.19,-31.89,-19.73,-46.77,35452
-1.93,-7.74,-6.63,1.69,-4.01,-0.89,-34.03,-21.98,-42.59,35486
-7.52,-11.32,-11.65,1.31,-3.62,-0.71,-35.41,-23.88,-34.62,35520
-5.13,-8.86,-11.92,1.19,-4.53,-0.73,-36.54,-25.48,-31.80,35554
-1.63,-7.78,-11.72,1.01,-4.78,-0.49,-36.73,-26.29,-26.21,35588
-5.03,-8.84,-9.08,0.87,-3.59,-0.20,-36.22,-27.39,-20.46,35623
-2.56,-10.07,-11.01,0.52,-4.00,0.17,-35.85,-27.68,-15.81,35657
2.97,-9.43,-9.61,0.04,-4.28,0.37,-33.89,-27.54,-10.25,35691
8.79,-9.21,-9.80,-0.54,-3.72,0.25,-31.31,-27.10,-4.62,35725
8.86,-7.10,-5.01,-1.09,-1.17,0.49,-30.40,-27.84,-3.33,35759
8.75,-8.43,1.02,-1.85,0.98,0.92,-31.07,-28.37,-3.90,35793
4.42,-11.23,3.64,-1.85,2.11,1.16,-33.13,-28.14,-7.03,35828
5.06,-10.42,4.26,-2.09,4.44,1.66,-35.55,-28.02,-11.46,35862
4.10,-11.79,3.16,-1.99,5.32,2.12,-39.29,-25.71,-20.08,35896
0.51,-12.72,5.13,-1.65,5.77,2.57,-41.01,-22.55,-27.38,35930
2.01,-14.67,0.48,-1.08,5.37,2.42,-41.27,-18.21,-34.64,35964
-3.68,-15.64,-5.85,-0.57,5.17,2.46,-39.49,-14.24,-42.69,35999
-0.33,-11.62,-5.08,0.12,3.11,1.58,-37.09,-11.18,-46.77,36033
-3.39,-14.09,-3.56,0.53,2.72,0.98,-34.24,-9.34,-50.00,36067
0.14,-9.78,-1.45,1.18,1.14,0.15,-33.05,-9.66,-51.59,36101
-4.14,-9.61,-4.48,1.73,-0.54,-0.77,-32.15,-11.81,-51.58,36135
-6.42,-2.98,-13.40,2.53,-3.94,-1.36,-34.57,-15.43,-46.99,36169
-5.39,-1.88,-15.65,2.22,-4.44,-1.12,-36.64,-17.41,-41.51,36204
-6.15,-5.21,-10.25,1.59,-4.29,-0.73,-38.09,-19.53,-34.30,36238
1.69,-3.23,-19.26,1.10,-5.31,-0.63,-39.27,-19.99,-27.14,36272
4.53,-8.01,-10.27,0.20,-2.67,-0.40,-37.94,-20.99,-23.69,36306
-0.13,-11.39,-1.49,0.09,-3.13,-1.13,-36.38,-22.24,-20.13,36340
0.89,-9.95,-1.95,0.01,-2.23,-0.84,-34.70,-23.21,-17.74,36375
2.20,-7.70,-4.44,-0.46,-1.60,-0.18,-33.56,-24.04,-15.17,36409
5.92,-7.09,-5.44,-0.91,-0.82,0.46,-32.99,-24.51,-14.35,36443
9.29,-6.87,-1.28,-1.46,0.19,0.91,-33.18,-24.29,-14.35,36477
7.02,-11.19,5.10,-1.72,2.21,1.56,-34.13,-23.08,-18.53,36511
3.66,-13.63,5.24,-1.72,4.19,1.73,-35.22,-22.49,-23.40,36545
1.22,-12.82,3.34,-1.55,5.40,2.01,-36.17,-20.70,-29.83,36580
-1.20,-15.26,-0.19,-0.96,4.85,2.25,-35.84,-18.02,-36.99,36614
1.34,-14.22,-3.67,-0.42,4.17,1.95,-35.44,-14.92,-41.70,36648
1.71,-11.22,-3.33,0.24,2.90,1.12,-34.17,-12.93,-45.54,36682
1.29,-11.19,-2.95,0.53,2.72,0.54,-32.45,-12.41,-48.39,36716
-2.47,-9.87,-3.14,0.69,1.97,0.35,-31.39,-12.22,-50.23,36750
-4.45,-10.64,-4.55,1.28,1.04,0.19,-30.53,-12.39,-51.29,36785
-8.73,-10.25,-7.13,1.80,-0.51,-0.13,-29.51,-13.39,-50.72,36819
-7.03,-6.94,-7.04,2.10,-1.96,-0.58,-30.52,-15.71,-48.04,36853
-6.51,-7.11,-12.47,2.34,-4.13,-1.27,-32.42,-19.45,-42.60,36887
-7.26,-5.07,-13.78,2.13,-5.80,-1.25,-34.11,-22.24,-35.75,36921
-5.47,-7.32,-13.29,1.50,-5.69,-0.85,-34.54,-24.95,-27.07,36956
-0.44,-10.92,-10.45,0.78,-4.83,-0.12,-33.85,-26.02,-21.43,36990
4.77,-7.75,-10.83,0.20,-4.17,-0.42,-32.45,-26.57,-15.96,37024
-20.65,-19.98,-7.66,0.41,-3.07,-0.21,-31.06,-27.83,-10.95,37058
2.97,-13.94,-3.06,-0.47,-1.91,0.37,-29.36,-28.09,-8.87,37092
4.60,-7.34,-5.63,-0.97,-0.98,0.55,-29.86,-28.34,-7.07,37126
4.95,-8.06,-1.28,-1.08,0.17,0.95,-31.22,-28.16,-7.29,37161
8.10,-9.04,0.34,-1.29,0.94,1.03,-32.94,-28.00,-8.49,37195
9.72,-10.11,1.37,-1.46,1.97,0.88,-35.02,-27.20,-11.27,37229
3.78,-11.06,2.67,-1.69,3.40,1.00,-37.18,-26.67,-16.28,37263
3.69,-11.54,1.99,-1.63,3.44,1.08,-39.17,-24.44,-20.90,37297
2.29,-13.28,0.76,-1.48,3.44,1.36,-40.06,-21.98,-26.94,37332
0.60,-11.84,0.90,-1.10,3.94,1.67,-40.16,-19.82,-31.67,37366
-0.53,-12.56,-1.95,-0.91,4.46,1.79,-38.80,-16.16,-38.19,37400
-7.38,-14.62,-2.73,-0.59,4.67,1.86,-36.36,-13.37,-43.36,37434
2.49,-10.52,-3.79,0.11,2.74,1.46,-34.58,-11.28,-46.54,37468
-3.05,-14.17,-2.41,0.09,3.25,1.54,-31.73,-10.13,-50.89,37502
-0.64,-13.04,2.14,1.18,0.82,0.44,-30.31,-9.97,-51.20,37537
2.72,-8.39,-5.92,1.79,-0.33,-0.35,-30.65,-10.99,-50.07,37571
2.46,-5.04,-10.01,1.60,-0.04,-0.62,-30.74,-12.63,-49.96,37605
-2.35,-6.85,-6.87,1.57,-0.87,-0.87,-31.86,-14.50,-48.33,37639
9.00,-2.75,5.95,1.39,-1.31,-0.67,-32.96,-15.33,-46.36,37673
-38.98,-14.53,8.90,1.22,0.30,-1.11,-33.02,-16.05,-44.78,37708
-0.92,-13.15,-18.87,1.93,-2.34,-0.91,-33.51,-17.10,-40.49,37742
-0.16,-8.49,-2.57,0.82,-0.43,-0.17,-32.75,-17.35,-39.10,37776
-2.69,-11.70,-2.25,1.21,-1.72,-0.26,-31.57,-16.28,-36.44,37810
-0.52,-9.78,-3.17,1.21,-1.61,-0.67,-29.82,-17.36,-34.98,37844
-2.82,-7.91,-5.39,1.38,-1.95,-0.95,-28.12,-18.74,-32.49,37878
-6.97,-8.65,-5.43,1.48,-2.70,-0.93,-26.78,-21.09,-29.83,37913
-3.32,-8.98,-5.27,1.54,-3.03,-0.62,-24.44,-23.69,-27.30,37947
1.71,-10.21,-7.89,1.27,-2.60,-0.21,-24.19,-26.31,-25.11,37981
2.18,-9.55,-3.37,1.21,-2.55,-0.23,-23.47,-29.23,-22.55,38015
-0.34,-10.13,-4.40,1.23,-2.79,-0.29,-23.05,-30.93,-18.59,38049
1.38,-8.87,-6.56,1.13,-2.95,-0.06,-23.17,-32.02,-15.65,38083
2.58,-12.41,-10.30,1.56,-4.32,-0.38,-21.32,-32.45,-10.65,38118
-3.92,-8.96,-5.72,-0.16,-0.07,0.76,-21.89,-32.52,-9.24,38152
0.50,-9.43,0.49,0.58,-1.91,0.51,-21.75,-33.02,-7.83,38186
-1.32,-9.61,-3.07,0.60,-1.85,0.51,-20.81,-32.86,-5.98,38220
4.35,-11.39,-9.30,1.21,-3.59,0.10,-19.42,-33.40,-2.44,38254
1.58,-10.07,-7.44,0.00,-0.71,0.45,-18.34,-32.91,-0.76,38289
-1.43,-10.09,-2.13,0.42,-1.58,-0.18,-18.02,-33.00,1.13,38323
1.64,-10.09,-4.05,0.59,-2.18,-0.28,-16.22,-33.31,3.43,38357
-2.72,-9.41,-2.43,0.82,-2.50,-0.20,-15.26,-32.23,5.57,38391
1.77,-10.57,-6.07,0.90,-2.89,-0.20,-11.68,-30.78,8.29,38425
-0.35,-11.64,-6.65,0.17,-1.11,0.38,-9.84,-29.49,9.84,38459
-2.47,-14.04,-1.33,0.84,-2.59,0.09,-8.55,-28.44,10.52,38494
3.68,-8.48,-4.55,0.73,-2.66,0.06,-4.52,-27.01,12.06,38528
1.90,-11.58,-7.27,0.47,-1.96,0.28,-2.09,-25.90,12.72,38562
0.91,-10.66,-3.98,0.30,-1.57,0.34,0.18,-25.40,13.15,38596
-1.31,-12.62,-2.85,0.39,-1.78,0.40,3.01,-24.51,13.53,38630
1.51,-8.39,-2.73,0.42,-1.91,0.38,5.16,-23.60,13.74,38665
1.23,-10.34,-4.51,0.49,-1.92,0.43,7.73,-22.64,12.85,38699
2.88,-11.22,-6.22,0.53,-1.91,0.24,10.39,-22.00,12.12,38733
0.12,-10.81,-4.85,0.60,-2.05,-0.03,12.51,-20.86,12.04,38767
0.62,-9.94,-3.71,0.67,-2.34,-0.07,15.76,-20.30,10.46,38801
3.18,-10.31,-3.99,0.67,-2.89,-0.06,19.12,-19.42,9.00,38835
3.77,-8.91,-7.62,0.78,-3.85,0.03,23.06,-18.69,5.95,38870
2.53,-11.81,-9.00,0.48,-3.33,0.26,27.52,-18.11,3.36,38904
3.24,-8.55,-6.11,-0.02,-2.20,0.59,28.57,-18.63,0.58,38938
5.98,-7.76,-3.72,-0.27,-1.34,0.59,29.90,-19.67,-0.51,38972
1.07,-14.25,6.66,-0.33,-0.04,0.72,30.15,-20.70,-1.78,39006
6.30,-10.07,1.38,-0.28,-0.60,0.63,29.52,-21.05,-1.87,39041
2.11,-8.63,-4.00,0.12,-0.65,0.29,29.54,-21.19,-3.17,39075
-0.24,-10.27,-3.41,0.20,-0.62,0.00,30.02,-20.94,-3.36,39109
-3.07,-10.07,-5.14,0.44,-2.11,-0.46,31.03,-20.27,-5.01,39143
-3.25,-11.15,-4.90,0.52,-2.10,0.04,32.32,-19.77,-7.70,39177
0.35,-12.55,-4.87,0.43,-2.31,0.31,33.25,-19.48,-9.79,39211
-1.57,-11.05,-2.84,0.53,-2.25,0.23,34.11,-19.12,-12.85,39246
0.47,-10.99,-5.02,0.34,-2.39,0.26,34.41,-19.41,-15.52,39280
0.84,-12.13,-3.50,0.13,-1.50,0.27,34.17,-18.74,-17.51,39314
0.20,-10.92,-2.86,0.06,-1.58,0.02,34.73,-18.21,-18.78,39348
-1.00,-10.00,-4.68,0.27,-2.09,-0.03,34.55,-17.60,-21.41,39382
0.86,-11.65,-6.57,0.20,-2.75,-0.18,34.41,-16.54,-24.06,39416
1.69,-8.91,-6.43,0.24,-2.83,-0.29,34.16,-15.76,-27.95,39451
2.94,-11.07,-5.94,0.26,-3.34,-0.39,37.28,-14.22,-31.28,39485
0.76,-9.35,-4.94,0.25,-2.89,-0.20,33.28,-13.05,-34.74,39519
1.39,-6.75,-6.82,0.22,-3.08,-0.33,32.11,-12.19,-39.35,39553
3.18,-8.41,-7.05,0.15,-2.97,-0.20,30.34,-11.14,-43.58,39587
3.63,-9.20,-7.00,0.05,-2.78,-0.19,28.59,-10.61,-47.25,39622
4.05,-9.02,-5.90,-0.05,-2.34,0.06,26.35,-10.08,-49.97,39656
5.26,-8.55,-3.02,-0.36,-1.50,0.18,24.48,-9.63,-52.51,39690
5.91,-8.93,-1.99,-0.42,-0.59,0.26,24.22,-8.93,-53.64,39724
3.14,-10.91,-0.74,-0.80,0.50,0.59,25.01,-8.16,-53.03,39758
4.06,-9.92,1.07,-0.89,1.16,0.68,25.78,-7.53,-52.98,39792
4.69,-9.65,2.01,-0.98,1.68,0.76,27.17,-7.32,-52.10,39827
8.93,-10.83,2.58,-0.95,2.48,0.83,30.40,-7.10,-49.77,39861
4.76,-10.60,0.01,-1.04,3.20,0.80,33.03,-7.42,-47.71,39895
4.92,-8.90,-2.64,-1.07,3.35,0.84,36.33,-7.76,-42.68,39929
6.38,-7.95,-2.66,-1.25,3.36,0.57,38.19,-8.49,-39.86,39963
3.56,-11.86,-3.86,-1.27,4.22,0.67,40.47,-9.35,-34.54,39998
2.63,-9.63,-5.19,-1.58,5.61,1.17,42.69,-11.49,-24.99,40032
-9.55,-14.87,-1.85,-0.14,1.99,0.17,42.22,-12.32,-20.08,40066
3.94,-9.66,-5.45,0.21,1.22,0.15,42.46,-12.57,-18.84,40100
1.25,-8.06,-7.09,0.24,1.40,-0.14,42.17,-13.11,-17.55,40134
0.92,-8.54,-3.82,0.59,1.19,-0.46,42.22,-13.04,-16.56,40168
1.79,-8.77,-2.98,0.68,0.55,-0.92,41.44,-12.23,-15.26,40203
-0.34,-11.08,0.07,0.66,0.63,-0.94,41.63,-11.11,-14.73,40237
-4.40,-12.01,0.36,0.91,0.10,-0.60,41.64,-10.22,-14.45,40271
-7.04,-14.01,-1.56,1.13,-0.30,-0.14,41.68,-10.20,-15.67,40305
-7.28,-11.94,-10.49,1.84,-1.87,0.41,42.46,-9.79,-17.90,40339
-6.16,-9.89,-13.59,2.41,-3.14,0.50,42.88,-11.12,-24.16,40374
-12.35,-11.20,-15.84,2.76,-6.29,-0.32,43.09,-11.68,-32.64,40408
-6.45,-9.18,-19.38,2.34,-7.51,-0.63,40.37,-11.75,-42.11,40442
-3.52,-10.37,-17.64,1.56,-7.04,-0.76,34.38,-11.77,-53.01,40476
8.88,-9.92,-14.33,0.87,-6.16,-0.03,28.94,-12.12,-59.12,40510
2.30,-7.77,-11.64,0.65,-3.30,1.49,24.25,-14.35,-63.15,40544
8.65,-8.39,-6.84,0.30,-3.35,2.13,20.45,-16.71,-65.71,40579
9.96,-5.29,-8.25,-0.06,-2.29,1.87,16.62,-18.55,-67.55,40613
10.33,-12.13,-3.67,-0.72,-0.84,0.66,14.28,-18.88,-67.74,40647
4.38,-10.53,-1.15,-0.85,-0.96,-0.58,13.12,-17.98,-68.65,40681
6.91,-7.60,-2.54,-0.99,-0.42,-0.03,11.78,-16.38,-69.29,40715
5.52,-10.38,0.71,-1.04,-0.02,0.33,11.59,-15.76,-68.20,40750
4.73,-10.23,-0.11,-0.96,0.77,0.28,12.36,-14.70,-68.74,40784
1.92,-9.77,-1.64,-1.06,1.56,0.37,13.81,-13.77,-67.85,40818
-0.23,-10.99,-1.68,-1.15,2.16,0.55,16.53,-12.93,-66.68,40852
-2.70,-10.84,1.07,-0.96,1.65,0.30,19.31,-12.41,-64.97,40886
-2.35,-9.49,-2.06,-0.56,1.04,-0.07,20.24,-12.07,-64.63,40920
-6.79,-11.14,-4.26,-0.59,1.00,0.27,21.46,-12.17,-63.43,40955
0.53,-11.14,-2.43,-0.71,1.36,1.00,22.33,-12.26,-62.06,40989
-2.34,-11.89,0.80,-0.56,1.38,0.88,23.57,-12.70,-61.84,41023
0.29,-9.81,-1.88,-0.49,0.40,0.47,24.03,-12.77,-60.63,41057
-0.47,-9.97,-3.97,-0.63,1.29,1.09,24.38,-13.58,-59.19,41091
2.05,-8.97,-1.39,-0.91,2.04,1.39,25.86,-13.45,-57.50,41125
4.32,-9.16,2.78,-1.03,2.90,1.45,28.75,-13.71,-54.00,41160
1.25,-12.59,1.36,-1.01,2.95,1.72,30.15,-14.31,-51.56,41194
2.08,-13.28,-1.07,-0.98,3.24,1.96,32.24,-15.76,-47.73,41228
2.85,-11.01,-0.34,-0.76,4.08,2.30,34.57,-17.95,-42.53,41262
-2.69,-12.97,-0.20,-0.60,3.98,2.47,35.87,-20.42,-37.68,41296
-0.03,-14.20,-2.76,-0.24,3.07,2.34,36.42,-22.80,-32.11,41331
3.05,-13.73,-2.41,-0.15,4.29,2.91,35.88,-25.68,-27.33,41365
1.01,-12.29,1.48,-0.11,4.52,3.13,35.12,-28.60,-22.20,41399
6.89,-11.29,-2.82,0.23,4.29,3.13,32.77,-32.27,-16.25,41433
9.18,-9.18,4.91,0.79,4.31,2.97,29.58,-34.86,-11.28,41467
4.56,-3.75,-4.93,1.72,2.03,1.61,26.60,-35.44,-7.69,41501
11.36,-4.82,-7.61,1.15,3.88,0.46,23.81,-35.05,-5.10,41536
9.12,3.24,-22.07,1.51,-1.06,-1.75,23.02,-33.43,-3.45,41570
-10.49,-9.07,-7.04,1.18,2.17,-0.93,23.33,-31.25,-1.77,41604
-5.00,-10.40,-1.04,1.56,-0.33,-1.66,24.90,-29.17,-1.04,41638
-10.65,-12.07,-6.35,1.68,-0.81,-1.39,25.83,-26.53,-0.57,41672
-17.85,-11.73,-6.87,2.64,-2.44,-0.85,28.57,-23.25,-2.22,41707
-11.53,-8.71,-13.74,3.41,-5.97,-1.13,32.59,-19.98,-6.05,41741
-13.91,-8.05,-18.74,3.35,-7.08,-0.87,37.15,-16.78,-14.64,41775
-8.86,-8.88,-21.97,2.96,-7.09,-0.09,39.61,-16.68,-23.21,41809
-1.82,-6.11,-24.45,1.79,-5.99,0.87,39.36,-17.66,-31.44,41843
7.02,-8.21,-21.07,0.71,-5.56,1.12,36.82,-19.57,-38.92,41877
11.63,-8.24,-12.58,-0.18,-4.92,1.72,34.00,-21.19,-43.91,41912
14.54,-3.05,-13.28,-0.59,-4.12,0.93,30.36,-21.43,-49.01,41946
10.55,-11.13,-6.50,-0.93,-3.02,-0.26,28.03,-20.30,-52.51,41980
10.20,-8.87,-0.41,-1.08,-1.65,-0.70,26.19,-18.47,-53.92,42014
6.02,-8.45,-1.84,-1.48,-1.23,-0.13,24.70,-16.35,-54.81,42048
10.41,-10.33,1.76,-2.01,0.57,0.91,24.66,-14.83,-55.10,42083
7.46,-9.69,6.74,-2.27,2.32,0.97,26.88,-13.37,-52.10,42117
6.00,-11.07,3.82,-2.45,4.06,1.57,30.25,-12.89,-49.49,42151
-0.33,-11.85,1.24,-2.38,6.55,2.93,35.00,-14.07,-42.18,42185
-3.94,-15.73,0.86,-1.64,6.25,3.19,38.64,-17.14,-33.13,42219
-4.40,-14.59,-3.85,-0.75,4.56,2.83,39.59,-19.94,-26.66,42253
2.57,-12.07,-3.93,-0.49,3.88,2.69,39.77,-24.12,-21.40,42288
-1.16,-14.58,-1.90,-0.31,4.35,2.55,37.90,-27.67,-16.38,42322
2.68,-15.95,-2.20,-0.07,3.29,2.35,36.25,-30.74,-12.35,42356
4.97,-14.15,0.32,0.05,3.93,2.69,33.13,-34.22,-7.22,42390
9.52,-12.77,0.17,0.14,4.84,2.90,28.05,-37.12,-2.89,42424
7.50,-13.88,3.34,0.24,5.53,2.67,22.45,-39.11,2.08,42458
8.97,-11.31,-1.49,0.86,4.48,1.12,16.08,-39.32,4.76,42493
3.38,-8.31,-5.76,1.57,1.94,0.48,12.47,-37.99,6.94,42527
1.55,-5.87,-10.90,2.19,0.48,-0.54,11.06,-35.06,8.96,42561
-6.54,-7.79,-11.72,2.55,-0.76,-1.35,12.41,-32.18,10.19,42595
-10.64,-7.66,-10.74,3.11,-2.13,-1.52,14.70,-28.98,10.63,42629
-13.32,-7.75,-13.34,4.07,-5.16,-1.51,21.82,-23.50,9.69,42664
-17.29,-10.01,-22.76,4.75,-8.11,-1.31,29.90,-17.95,3.89,42698
-15.46,-13.45,-26.26,4.07,-11.83,-1.29,40.24,-13.27,-11.69,42732
-0.99,-12.77,-22.94,2.32,-8.03,-0.35,42.90,-11.94,-23.90,42766
-4.61,-12.44,-15.71,1.38,-4.32,0.71,42.90,-13.37,-30.72,42800
2.46,-5.86,-21.37,1.65,-6.45,0.33,40.27,-15.49,-39.67,42834
16.85,-5.83,-17.29,0.39,-5.40,-0.16,36.38,-16.15,-46.84,42869
10.74,-3.78,-14.24,-0.42,-2.60,0.45,33.43,-16.22,-49.58,42903
6.99,-9.73,1.02,-1.08,-1.00,1.83,32.32,-16.76,-51.14,42937
16.44,-5.49,-0.21,-1.41,-0.06,2.01,31.41,-17.70,-51.99,42971
17.62,-7.23,-0.62,-2.04,2.25,1.79,32.87,-17.47,-49.90,43005
10.25,-9.00,7.88,-2.44,5.05,1.49,36.06,-17.51,-45.09,43040
-1.59,-13.30,4.28,-2.00,5.04,1.12,38.89,-17.55,-38.47,43074
1.10,-10.34,-4.01,-1.73,4.33,2.01,39.58,-18.62,-32.83,43108
-0.90,-12.80,-3.98,-1.75,6.21,3.07,40.94,-21.76,-26.62,43142
-2.40,-17.62,3.67,-1.59,6.79,3.27,39.21,-26.78,-16.72,43176
6.32,-15.36,3.70,-0.50,5.32,2.19,36.76,-30.37,-10.83,43210
4.12,-13.65,-2.40,-0.43,6.58,1.94,33.02,-32.48,-3.92,43245
5.14,-7.62,0.75,0.48,3.17,1.13,28.28,-34.33,-0.72,43279
3.38,-8.90,-7.50,1.25,2.33,0.88,26.00,-34.13,1.70,43313
0.10,-6.86,-10.94,1.73,1.43,0.02,23.94,-33.22,4.38,43347
-4.58,-5.44,-10.74,2.60,-1.04,-0.68,23.94,-30.58,4.79,43381
-3.86,-4.43,-8.40,3.20,-3.61,-1.27,27.46,-27.08,2.84,43416
-15.37,-7.08,-12.36,3.80,-6.55,-1.37,33.46,-22.05,-2.91,43450
-9.71,-10.76,-17.10,3.19,-8.91,-1.76,38.85,-18.65,-12.80,43484
-6.60,-9.71,-18.23,2.10,-6.64,-0.97,40.40,-15.64,-23.84,43518
2.59,-11.58,-12.39,1.32,-5.27,-0.44,39.49,-15.14,-30.74,43552
1.55,-7.90,-14.79,1.26,-5.45,-0.47,37.66,-13.67,-36.93,43586
6.74,-5.03,-15.18,0.94,-4.90,-0.24,34.55,-12.42,-44.42,43621
7.32,-7.98,-8.77,0.27,-2.92,0.89,32.17,-12.15,-48.55,43655
9.11,-8.08,-0.77,-0.54,-1.79,1.64,30.88,-12.70,-51.43,43689
9.84,-6.34,-5.56,-0.64,-1.58,1.51,29.85,-12.92,-53.60,43723
14.98,-4.59,-3.47,-1.69,0.66,1.78,30.78,-13.40,-53.38,43757
9.25,-11.80,4.51,-2.43,3.05,1.65,33.85,-13.21,-50.22,43791
7.25,-10.15,5.27,-2.42,4.77,1.76,36.95,-13.93,-44.93,43826
-0.83,-11.68,4.50,-2.35,6.08,2.40,40.91,-15.97,-36.03,43860
9.46,-11.79,-5.82,-1.71,5.78,3.00,42.98,-19.75,-28.47,43894
2.94,-10.81,-5.35,-1.75,7.55,3.52,42.87,-25.07,-20.15,43928
-5.27,-23.16,5.30,-0.50,5.35,3.22,39.42,-31.16,-10.73,43962
4.74,-11.21,-6.64,0.37,3.51,1.79,35.85,-34.03,-7.66,43997
-1.17,-11.23,-5.73,0.81,3.06,0.98,32.65,-35.47,-3.17,44031
1.02,-7.68,-5.34,1.65,1.13,0.15,30.34,-34.93,-1.20,44065
-0.76,-9.08,-7.37,2.05,-0.23,-0.25,30.05,-33.16,-0.79,44099
-4.74,-5.73,-10.63,2.48,-1.97,-1.06,31.28,-29.87,-2.13,44133
-3.84,-5.00,-8.39,2.59,-3.73,-1.53,33.73,-25.69,-4.57,44167
-11.00,-6.21,-9.61,2.81,-4.94,-1.30,36.57,-22.64,-9.34,44202
-9.79,-5.91,-16.78,2.62,-6.73,-1.26,39.97,-19.63,-19.06,44236
-4.34,-5.94,-15.09,1.61,-6.38,-0.70,40.62,-17.66,-26.69,44270
9.10,-13.74,-9.85,1.07,-6.15,-0.50,39.46,-17.10,-35.11,44304
2.50,-8.34,-5.78,0.59,-2.92,-0.25,38.18,-16.69,-38.97,44338
0.18,-11.54,-4.84,0.36,-2.60,0.06,37.14,-17.20,-41.68,44373
4.98,-4.51,-13.03,0.67,-4.75,-0.22,34.35,-17.03,-47.14,44407
1.46,-8.95,-8.17,-1.34,-0.03,0.69,33.29,-17.07,-48.09,44441
6.01,-7.24,-2.70,-1.34,-0.31,0.49,33.51,-16.46,-47.98,44475
9.54,-6.89,-0.50,-1.61,0.54,0.96,32.97,-15.77,-47.71,44509
6.09,-8.59,0.96,-1.94,2.31,1.60,34.17,-15.89,-45.88,44543
3.22,-9.07,2.80,-2.06,4.10,2.09,36.04,-16.95,-40.81,44578
2.01,-10.53,3.42,-2.10,5.22,2.52,37.74,-19.29,-34.68,44612
-0.71,-13.93,2.51,-1.83,5.36,3.03,38.91,-22.17,-26.48,44646
0.67,-16.41,2.03,-1.32,5.57,3.10,37.30,-25.84,-21.10,44680
-1.17,-16.52,-1.75,-0.50,5.54,3.17,35.12,-29.09,-14.88,44714
-2.26,-15.13,0.43,-0.08,5.65,2.81,30.82,-33.08,-8.24,44749
-1.09,-14.56,0.48,0.86,2.97,1.05,27.55,-33.47,-4.12,44783
2.36,-6.54,-6.92,1.67,0.68,0.19,27.23,-32.04,-2.27,44817
-0.87,-9.04,-9.52,2.12,-0.48,0.31,27.17,-30.65,-1.21,44851
-2.51,-3.09,-12.36,2.41,-2.29,-1.09,29.23,-27.29,-1.90,44885
-6.58,-5.39,-10.58,2.34,-3.89,-1.35,33.27,-23.97,-4.97,44919
-7.87,-9.32,-10.53,2.10,-5.60,-1.47,37.40,-21.12,-9.57,44954
-2.79,-6.97,-10.11,1.47,-5.28,-1.18,40.73,-18.69,-17.54,44988
-3.82,-7.12,-7.57,1.06,-4.30,-0.73,42.78,-17.26,-24.35,45022
-0.83,-9.46,-1.21,0.86,-4.66,-0.80,43.58,-16.78,-31.13,45056
7.08,-6.76,-12.60,0.08,-4.17,-0.20,42.84,-17.58,-38.70,45090
3.96,-8.91,-8.74,-0.05,-1.95,0.23,41.90,-18.87,-42.60,45125
5.15,-10.19,-3.17,-0.57,-1.08,0.15,41.64,-20.30,-44.87,45159
7.88,-10.21,-0.98,-0.96,-0.45,0.68,40.15,-22.03,-45.07,45193
11.53,-9.27,-0.68,-1.29,0.60,0.93,40.40,-22.95,-44.30,45227
8.75,-9.73,3.18,-1.34,1.86,0.87,40.75,-24.01,-42.39,45261
2.41,-11.56,1.62,-1.43,2.10,0.45,41.16,-24.58,-40.19,45295
8.83,-9.70,-0.31,-1.57,2.78,0.81,40.85,-25.33,-37.30,45330
3.12,-11.58,-0.27,-1.64,4.25,1.37,41.70,-27.01,-32.17,45364
4.88,-10.19,0.97,-1.44,4.68,1.48,40.92,-29.22,-25.90,45398
2.60,-10.85,1.13,-1.07,5.64,1.76,39.87,-31.63,-19.77,45432
2.51,-12.94,-3.78,-0.57,5.06,1.67,36.52,-33.97,-13.37,45466
-2.58,-11.46,-5.31,0.05,4.20,0.94,33.57,-35.22,-8.58,45500
-1.45,-7.56,-5.76,0.82,2.52,0.11,31.75,-34.71,-5.22,45535
-1.26,-9.58,-6.74,1.59,0.63,-0.05,29.98,-34.24,-3.90,45569
-3.88,-5.51,-5.56,2.07,-0.29,-0.38,30.17,-32.39,-3.24,45603
-5.85,-5.93,-10.35,2.64,-2.82,-0.98,31.48,-29.19,-4.53,45637
-9.56,-4.44,-12.08,2.78,-4.11,-0.98,33.92,-26.62,-7.06,45671
-9.35,-4.82,-12.66,2.80,-6.55,-0.96,37.34,-22.95,-15.92,45706
-4.97,-11.86,-11.06,1.78,-6.30,-0.71,38.88,-21.43,-23.18,45740
0.99,-7.91,-9.00,1.09,-5.30,-0.35,38.64,-20.39,-29.35,45774
7.44,-10.43,-8.77,0.52,-3.52,0.04,36.67,-20.21,-34.73,45808
15.54,-2.01,-9.36,0.21,-2.80,0.14,35.41,-19.85,-37.87,45842
12.04,-7.65,-6.92,-0.08,-2.69,0.25,34.03,-18.97,-40.53,45876
3.81,-8.34,-2.11,-0.50,-1.19,0.24,33.40,-18.69,-42.46,45911
5.80,-10.97,-2.99,-0.80,-0.86,0.35,32.83,-18.25,-44.26,45945
7.23,-8.94,-3.62,-1.01,-0.40,0.72,32.56,-17.57,-45.43,45979
4.44,-8.03,-0.19,-1.07,0.53,1.03,32.96,-18.18,-45.05,46013
5.12,-10.05,0.71,-1.49,1.72,1.50,34.36,-18.96,-42.71,46047
5.71,-10.20,3.22,-1.73,3.25,2.30,35.88,-20.48,-39.08,46082
2.39,-12.78,3.19,-1.46,4.70,2.11,37.28,-22.33,-35.28,46116
0.36,-14.71,-0.04,-1.26,5.27,2.18,37.75,-25.64,-27.89,46150
2.11,-10.74,-1.34,-0.64,6.04,2.39,36.60,-28.68,-20.52,46184
-2.13,-12.65,-1.82,-0.30,4.91,2.10,34.23,-31.79,-13.83,46218
2.97,-11.97,0.98,0.31,3.71,1.28,31.19,-33.15,-10.25,46252
3.83,-11.41,-1.74,1.14,1.91,0.12,28.73,-33.66,-7.42,46287
2.30,-9.02,-7.45,1.80,0.67,-0.49,27.71,-31.88,-5.03,46321
-4.23,-5.92,-13.02,1.98,-0.45,-1.19,28.31,-29.07,-4.44,46355
-6.15,-8.12,-7.80,1.94,-2.08,-1.46,29.89,-26.79,-3.77,46389
-10.23,-10.34,-4.52,2.32,-3.55,-1.28,32.30,-23.15,-7.16,46423
-9.08,-9.13,-9.75,2.57,-6.03,-1.21,35.34,-20.46,-12.74,46458
-3.65,-5.88,-17.33,1.90,-6.67,-1.22,37.52,-17.16,-21.44,46492
0.08,-4.34,-13.59,1.36,-4.87,-0.87,37.46,-15.51,-27.93,46526
2.81,-7.95,-4.37,0.90,-4.20,-0.87,37.15,-13.81,-34.20,46560
-5.98,-9.33,-3.85,0.85,-3.77,-0.69,35.98,-12.44,-39.42,46594
4.86,-7.35,-10.74,1.09,-4.85,-0.73,34.00,-11.40,-44.74,46628
5.61,-5.48,-12.83,-0.28,-2.31,0.23,32.21,-10.54,-49.75,46663
7.10,-4.96,-6.95,-1.05,-0.63,0.79,32.15,-10.27,-50.03,46697
5.26,-8.40,-0.77,-1.90,1.10,1.72,33.15,-10.84,-49.39,46731
7.08,-11.01,4.80,-1.97,2.33,2.36,34.80,-11.72,-46.81,46765
5.97,-11.00,5.98,-1.88,3.93,2.66,37.78,-13.88,-42.55,46799
5.24,-11.24,2.02,-1.48,4.84,2.30,39.96,-17.01,-35.65,46833
1.38,-14.05,4.14,-1.57,6.92,2.99,42.34,-20.97,-28.06,46868
-2.50,-16.15,0.96,-0.93,5.65,2.50,41.98,-24.71,-19.58,46902
0.07,-14.43,-0.82,-0.34,5.43,2.19,40.06,-29.39,-12.57,46936
-0.50,-13.59,-2.09,0.25,4.32,1.38,37.39,-31.88,-6.52,46970
3.20,-8.85,-6.38,0.53,2.87,0.62,34.99,-32.56,-2.47,47004
-2.72,-9.71,-2.67,0.97,1.51,0.45,31.86,-33.24,-0.54,47039
-1.67,-9.92,-5.54,1.44,0.53,0.00,31.44,-32.72,0.35,47073
-6.70,-8.23,-10.37,2.15,-1.21,-0.90,32.64,-29.92,0.96,47107
-6.91,-5.50,-9.97,2.48,-3.25,-1.29,34.83,-27.35,-1.46,47141
-3.98,-5.63,-9.81,2.53,-5.31,-1.53,38.34,-24.39,-6.34,47175
-7.29,-6.76,-16.13,2.20,-7.42,-1.53,42.59,-21.19,-17.33,47209
-2.59,-6.57,-15.24,1.37,-6.29,-0.94,43.17,-19.69,-26.10,47244
4.06,-6.99,-10.33,0.77,-4.27,-0.22,41.89,-19.66,-32.99,47278
3.98,-12.68,-3.85,0.13,-2.39,0.30,40.21,-20.72,-35.90,47312
-0.30,-10.30,-2.31,0.19,-2.75,0.15,39.18,-21.46,-38.47,47346
5.85,-8.06,-5.52,0.02,-2.99,-0.03,36.03,-20.78,-42.56,47380
3.75,-6.54,-5.92,-0.70,-1.37,0.25,34.19,-20.10,-44.15,47415
4.79,-7.20,-4.61,-1.02,-0.33,0.49,33.15,-18.71,-44.36,47449
4.64,-9.79,-1.69,-1.39,0.22,0.64,32.56,-17.73,-44.31,47483
2.76,-7.46,0.90,-1.50,1.11,0.93,32.81,-17.45,-43.29,47517
2.21,-9.13,1.27,-1.54,1.83,1.21,33.95,-17.41,-41.48,47551
3.87,-11.58,0.98,-1.69,3.08,1.65,34.49,-17.85,-37.83,47585
0.34,-10.80,1.00,-1.57,3.62,1.92,35.72,-18.72,-30.44,47620
-0.43,-11.21,0.06,-1.41,4.03,2.32,36.25,-20.53,-28.52,47654
-1.26,-11.42,-1.29,-1.06,4.30,2.35,35.71,-21.79,-23.72,47688
3.56,-12.28,-0.25,-0.61,4.78,2.73,35.21,-24.42,-16.87,47722
1.32,-12.62,-0.54,-0.35,4.43,2.49,33.97,-26.86,-12.12,47756
0.15,-12.23,2.11,0.03,4.72,2.50,31.66,-29.01,-6.69,47791
2.68,-13.50,-0.62,0.38,3.74,1.83,28.44,-31.38,-2.51,47825
4.35,-9.46,-5.65,1.00,1.85,0.57,26.62,-32.02,0.00,47859
1.08,-10.30,-3.53,1.17,1.35,0.23,25.53,-31.86,2.31,47893
1.92,-8.22,-1.94,1.66,0.16,-0.52,25.34,-29.92,2.63,47927
2.01,-7.72,-5.46,1.87,-0.65,-1.08,26.41,-28.33,3.64,47961
0.74,-6.38,-6.44,1.98,-1.35,-1.24,28.81,-24.80,2.94,47996
-0.71,-8.43,-5.90,1.84,-1.67,-1.16,30.90,-22.36,2.59,48030
