ax,ay,az,gx,gy,gz,mx,my,mz,timestamp
-1.42,-9.85,1.38,0.07,0.05,-0.13,35.00,-23.98,-9.19,2246
-1.34,-9.72,1.46,0.14,-0.05,-0.11,34.14,-24.14,-9.38,2280
-0.96,-9.65,1.73,0.12,-0.06,-0.07,34.80,-24.17,-8.55,2314
-0.85,-9.40,1.95,0.02,-0.12,-0.12,34.65,-24.26,-9.27,2348
-0.34,-9.39,1.41,-0.23,-0.20,-0.18,34.95,-24.33,-9.15,2382
-0.72,-9.54,1.61,-0.24,0.07,-0.17,35.19,-24.32,-10.19,2416
-0.96,-9.79,1.20,-0.07,0.04,-0.27,34.98,-23.79,-9.47,2451
-0.81,-9.66,1.10,-0.10,-0.08,-0.36,34.80,-23.81,-9.27,2485
-1.11,-10.03,0.90,-0.08,-0.16,-0.34,35.52,-24.10,-9.81,2519
-0.37,-9.77,1.10,-0.05,-0.16,-0.32,35.68,-23.49,-9.97,2553
-0.42,-9.77,0.95,-0.05,-0.13,-0.40,35.59,-22.76,-10.06,2587
-0.20,-9.69,0.60,-0.06,-0.13,-0.50,36.09,-22.41,-10.90,2622
0.95,-9.60,-0.31,-0.10,-0.17,-0.66,36.14,-22.01,-10.82,2656
0.39,-9.69,-0.51,-0.19,-0.07,-0.88,36.93,-21.54,-10.86,2690
1.50,-9.43,-0.80,-0.23,-0.04,-1.04,36.64,-20.27,-11.55,2724
3.18,-9.66,0.18,-0.29,0.16,-1.10,36.74,-19.48,-11.21,2758
1.21,-10.71,1.40,-0.42,0.69,-1.22,36.33,-18.06,-10.93,2792
3.01,-8.87,1.26,-0.24,-0.46,-1.25,36.54,-16.69,-11.30,2827
2.18,-9.61,0.95,-0.17,0.15,-0.95,36.50,-15.90,-11.30,2861
4.64,-10.15,2.44,-0.14,0.82,-0.82,36.47,-14.69,-10.36,2895
2.11,-10.16,1.02,-0.12,1.42,-1.08,35.76,-14.45,-8.40,2929
0.07,-10.49,-1.84,-0.10,1.49,-1.25,34.62,-12.95,-6.34,2963
-4.88,-12.42,-1.93,-0.19,1.56,-1.38,33.72,-11.72,-3.95,2998
-6.74,-15.31,-2.39,0.21,0.91,-1.62,32.46,-9.88,-3.84,3032
-6.12,-22.11,-4.67,0.45,0.57,-1.62,32.18,-8.08,-2.66,3066
1.37,-13.57,-0.84,0.99,-0.45,-1.67,31.39,-4.79,-4.06,3100
14.53,0.49,-15.14,1.19,-0.99,-1.89,31.35,-1.48,-4.27,3134
-7.16,-7.65,5.02,1.21,-4.07,-0.49,31.79,0.45,-8.70,3168
-3.07,-3.68,-1.26,1.11,-8.10,1.26,35.18,0.73,-18.69,3203
-0.57,-3.55,-1.81,1.70,-8.60,2.38,35.71,-1.71,-28.87,3237
7.87,-2.38,-0.85,2.57,-6.66,2.95,33.63,-5.71,-38.99,3271
33.33,-14.68,-17.23,1.64,-4.91,3.23,31.06,-9.37,-44.55,3305
-24.06,-39.20,3.83,0.45,0.59,2.93,31.15,-12.01,-43.91,3339
21.83,-6.64,4.24,-0.68,2.42,-0.07,31.25,-10.27,-42.90,3374
4.19,-7.42,-4.50,-0.66,1.51,-0.88,32.77,-9.06,-41.48,3408
-2.64,-9.97,-0.40,-0.84,1.94,-0.83,33.56,-6.52,-39.52,3442
-6.93,-9.50,-0.24,-0.90,2.53,-0.69,34.65,-5.54,-37.46,3476
1.47,-13.10,1.08,-0.37,1.66,-0.51,35.21,-4.00,-35.60,3510
1.09,-10.42,-1.15,0.38,0.75,-0.51,35.03,-3.00,-33.92,3544
1.83,-10.01,-1.97,0.77,0.58,-0.56,35.55,-2.88,-33.35,3579
-0.92,-10.42,-2.02,1.10,0.02,-0.71,35.87,-2.43,-34.65,3613
-1.80,-10.04,-2.95,1.72,-0.67,-0.21,36.04,-2.15,-35.44,3647
-1.00,-9.70,-1.44,2.37,-1.35,0.05,35.49,-2.24,-37.09,3681
0.74,-9.09,-0.56,2.85,-1.79,0.33,35.40,-3.99,-39.83,3715
3.08,-9.38,-0.65,2.99,-2.09,0.29,34.95,-5.32,-42.79,3750
1.30,-11.10,-1.82,2.95,-2.78,0.35,33.63,-7.42,-46.16,3784
1.07,-12.14,-2.34,2.97,-3.60,0.54,30.99,-9.18,-50.77,3818
-0.29,-10.16,-3.10,3.09,-3.94,0.77,27.70,-11.91,-53.30,3852
0.82,-11.98,0.78,3.00,-3.88,1.04,24.99,-18.31,-56.33,3886
8.01,-14.75,-4.44,2.40,-3.98,1.06,21.34,-17.96,-58.78,3920
5.37,0.88,-5.98,2.67,-2.83,1.16,19.03,-21.54,-59.49,3955
-6.14,-27.10,0.42,2.42,-3.16,1.25,16.63,-25.67,-59.89,3989
-0.03,-12.85,-1.69,3.08,-3.93,1.87,13.45,-31.01,-59.13,4023
-1.17,-19.78,-4.01,2.98,-4.57,2.50,8.61,-35.37,-58.39,4057
1.51,-18.57,-3.70,2.90,-4.57,2.63,1.80,-40.82,-54.56,4091
-4.02,-19.77,0.45,2.71,-4.37,3.22,-4.36,-44.20,-51.20,4125
-11.77,-20.95,-5.04,2.73,-5.85,3.77,-12.74,-46.54,-45.02,4160
-6.55,-20.98,-7.69,2.64,-3.26,3.98,-18.80,-46.35,-39.42,4194
-5.15,-19.48,-8.11,2.08,-2.77,4.46,-23.85,-45.47,-34.41,4228
-0.09,-21.79,-10.69,1.60,-2.08,5.00,-30.96,-40.72,-29.54,4262
0.65,-19.94,-15.26,0.20,-0.27,4.77,-35.02,-35.63,-27.90,4296
10.32,-16.75,-17.78,-1.63,2.24,4.26,-39.84,-28.38,-31.07,4331
15.77,-15.59,-18.01,-3.30,3.79,3.45,-40.47,-21.76,-37.18,4365
21.55,-18.73,-10.73,-5.13,5.58,0.59,-37.96,-16.56,-45.63,4399
19.69,-18.80,1.96,-5.46,4.15,-2.00,-33.00,-12.83,-52.21,4433
10.15,-18.16,15.15,-3.71,0.76,-4.72,-31.19,-11.94,-54.24,4467
18.74,-10.08,17.69,-0.56,-5.41,-5.51,-34.65,-15.39,-48.26,4501
23.84,-6.52,8.09,1.01,-6.46,-5.80,-37.34,-22.13,-40.13,4536
11.83,-16.57,7.40,2.30,-8.26,-5.39,-37.24,-29.87,-29.00,4570
3.38,-7.72,8.02,2.05,-5.30,-4.84,-32.51,-36.85,-18.99,4604
2.05,-0.51,5.43,2.31,-4.75,-3.37,-27.64,-40.13,-11.68,4638
-0.42,-17.83,7.97,3.41,-6.55,-2.38,-22.32,-40.88,-2.24,4672
10.91,-11.15,2.02,4.00,-7.18,-2.10,-12.79,-38.82,5.47,4707
5.73,-11.10,-0.78,4.13,-7.37,-1.61,-3.95,-35.33,10.67,4741
3.22,-12.56,-2.62,3.95,-6.92,-1.43,6.81,-29.55,13.02,4775
-1.36,-10.29,-7.35,3.94,-6.29,-1.17,15.23,-25.11,12.80,4809
2.48,-9.64,-6.65,3.96,-6.25,-0.87,22.32,-20.07,10.41,4843
8.70,-9.27,-0.71,3.90,-6.48,-0.93,30.24,-14.50,4.88,4877
6.99,-4.59,-4.94,3.67,-6.32,-0.89,35.37,-10.57,-2.59,4912
6.89,-5.33,-5.73,3.20,-6.45,-1.06,39.74,-6.97,-12.34,4946
6.57,-6.55,-4.97,2.64,-5.37,-1.13,40.59,-5.16,-20.64,4980
3.10,-8.38,-4.40,2.44,-5.09,-1.13,40.56,-3.90,-28.66,5014
3.75,-8.16,-3.87,2.38,-4.99,-0.93,38.40,-3.39,-35.68,5048
3.18,-8.05,-6.97,2.32,-5.15,-0.80,35.27,-4.27,-43.19,5083
0.99,-7.60,-8.29,2.33,-5.62,-0.69,30.75,-5.67,-50.67,5117
6.39,-7.57,-7.59,2.44,-6.99,-0.46,24.13,-7.23,-57.03,5151
7.24,-5.50,-11.37,2.63,-7.45,-0.44,16.47,-10.36,-61.53,5185
15.71,-5.91,-8.84,2.64,-7.77,-0.40,5.10,-14.48,-64.26,5219
8.82,-5.80,-7.27,2.40,-7.52,-0.63,-5.12,-17.79,-64.69,5253
14.83,-6.29,-6.09,2.15,-7.99,-0.77,-14.60,-21.08,-60.20,5288
14.23,-7.69,-1.60,2.10,-8.77,-1.25,-25.05,-24.01,-53.87,5322
13.91,-7.15,-3.86,2.08,-8.54,-2.12,-30.97,-26.53,-44.93,5356
8.37,-6.94,-3.20,1.93,-8.11,-2.66,-34.22,-30.42,-32.49,5390
2.29,-5.87,1.83,1.95,-7.20,-2.92,-33.43,-33.24,-23.02,5424
0.47,-10.21,0.99,2.45,-7.98,-2.77,-29.87,-35.88,-12.15,5458
8.88,-7.12,-3.26,2.91,-8.52,-2.38,-21.54,-36.76,-0.67,5493
15.53,-4.29,-3.24,2.85,-8.11,-2.45,-12.80,-35.72,6.74,5527
2.79,-7.68,-3.82,2.80,-7.11,-2.76,-1.39,-32.59,10.99,5561
11.33,-6.38,0.86,3.02,-7.27,-2.37,8.81,-28.75,11.79,5595
7.16,-9.09,0.55,2.78,-6.55,-2.15,17.83,-25.34,10.68,5629
2.39,-9.18,-3.62,2.53,-5.52,-2.25,26.18,-20.56,7.40,5664
-0.70,-10.26,-6.59,2.34,-4.35,-1.86,30.44,-16.22,3.86,5698
0.83,-10.87,-3.78,2.44,-4.69,-1.48,35.36,-12.76,-2.24,5732
9.92,-5.60,-1.88,2.89,-5.08,-1.05,38.59,-10.44,-9.24,5766
12.26,-5.23,-6.40,2.62,-5.62,-0.93,39.92,-7.94,-16.82,5800
11.28,-3.94,-7.95,2.55,-5.78,-0.91,40.50,-6.53,-26.12,5834
8.43,-2.90,-5.64,2.60,-6.57,-0.99,39.23,-6.12,-35.22,5869
12.92,-4.65,-5.27,2.64,-8.13,-1.44,35.15,-6.42,-45.13,5903
12.64,-3.51,-1.20,2.64,-8.70,-1.63,26.22,-6.78,-54.74,5937
11.55,-7.23,-4.02,2.33,-8.47,-1.85,16.81,-8.73,-61.28,5971
6.64,-8.34,1.89,2.18,-8.05,-1.70,4.47,-10.73,-64.12,6005
5.84,-10.04,2.63,1.67,-7.41,-1.29,-5.38,-12.47,-64.00,6040
0.01,-10.41,2.03,1.01,-6.32,-1.21,-13.59,-14.02,-62.15,6074
-0.27,-9.72,-1.64,0.69,-5.83,-1.16,-21.86,-15.54,-58.02,6108
-2.54,-9.36,-2.98,0.31,-4.73,-1.41,-26.54,-16.81,-53.86,6142
2.74,-6.09,-5.31,0.45,-5.22,-1.27,-31.25,-18.90,-47.18,6176
6.48,-9.47,-7.88,0.47,-5.75,-1.28,-34.22,-20.65,-41.33,6210
7.90,-9.49,-13.26,0.57,-6.54,-2.00,-36.23,-22.74,-34.33,6245
8.17,-5.64,-14.43,0.77,-7.60,-2.46,-36.52,-25.11,-23.14,6279
10.42,-11.18,-10.47,1.02,-8.51,-3.29,-33.62,-28.50,-12.48,6313
16.40,-0.45,-12.00,1.83,-9.05,-4.34,-26.07,-31.86,0.10,6347
30.70,-0.22,-1.00,1.82,-10.86,-3.67,-12.34,-33.43,7.86,6381
11.81,-4.81,-11.52,1.90,-14.67,-2.65,5.23,-31.89,11.69,6416
7.61,-2.69,-9.65,1.56,-15.29,-2.25,28.02,-30.20,1.94,6450
22.10,6.97,-14.87,1.01,-12.24,-1.08,37.53,-28.30,-11.94,6484
15.26,1.80,4.60,1.75,-7.44,-0.60,39.67,-27.76,-21.51,6518
39.16,12.35,-21.83,4.68,-10.18,-2.49,39.65,-26.62,-30.31,6552
7.15,-5.72,23.04,2.26,-1.09,-1.84,39.49,-25.81,-32.87,6586
12.45,-13.82,15.63,2.24,-3.41,1.25,38.61,-28.12,-36.12,6621
6.43,-5.70,-7.25,2.23,-2.21,1.19,37.68,-30.47,-37.26,6655
1.44,-10.94,-6.11,1.34,-0.67,0.53,36.48,-31.86,-38.10,6689
-6.44,-9.69,-0.43,0.81,-1.73,-0.52,35.82,-32.96,-38.64,6723
-11.78,-9.57,4.33,0.96,-3.04,-0.15,34.79,-33.62,-42.47,6757
-9.22,-7.55,2.98,1.26,-5.63,0.10,30.05,-35.57,-47.46,6791
-14.47,-18.07,-3.20,1.59,-6.70,-0.17,24.01,-36.83,-51.62,6826
-0.46,-4.21,-2.33,1.28,-3.71,-0.24,20.24,-38.12,-53.22,6860
-22.05,-19.34,6.64,1.49,-6.12,-0.37,14.15,-39.73,-54.66,6894
-2.81,-10.72,-0.01,1.99,-6.37,0.41,6.27,-42.40,-53.54,6928
-5.28,-17.20,0.33,1.23,-3.99,1.22,0.19,-44.53,-51.93,6962
-2.70,-17.40,-1.11,0.85,-1.22,1.03,-3.93,-44.67,-50.28,6997
-6.75,-7.52,-2.70,1.15,-1.22,0.94,-5.88,-45.15,-47.72,7031
0.32,-7.62,-5.30,1.37,-3.56,1.49,-11.03,-45.35,-45.03,7065
3.15,-14.04,-2.16,1.03,-4.15,1.18,-15.42,-44.91,-41.52,7099
3.46,-15.87,-6.36,0.59,-2.98,0.48,-18.44,-44.75,-38.42,7133
-1.85,-11.84,-0.11,0.45,-2.11,0.27,-20.37,-44.02,-37.17,7167
-0.99,-8.32,-1.47,0.84,-2.33,1.11,-22.62,-43.39,-34.26,7202
-0.02,-14.27,-3.28,0.92,-2.83,1.40,-26.10,-41.82,-30.47,7236
4.18,-9.28,-4.28,0.48,-2.30,0.74,-27.81,-40.79,-27.40,7270
4.85,-11.48,-6.04,0.47,-2.85,0.23,-28.97,-39.33,-24.96,7304
3.47,-8.67,-3.58,0.14,-1.94,0.18,-29.70,-38.48,-21.91,7338
3.87,-9.19,-1.19,0.19,-2.26,0.38,-30.30,-37.68,-19.66,7373
6.36,-10.09,-2.58,0.09,-2.18,0.18,-29.25,-36.36,-17.23,7407
4.11,-11.50,-1.19,0.03,-0.69,0.08,-29.51,-35.19,-16.82,7441
-0.21,-12.59,1.56,0.18,-0.33,0.03,-29.58,-34.67,-15.61,7475
1.74,-12.94,0.28,0.38,-0.31,-0.15,-29.60,-34.07,-15.58,7509
-5.90,-13.61,0.86,0.60,0.31,0.08,-28.66,-32.65,-15.24,7543
-10.60,-16.10,-10.83,0.58,-1.61,0.73,-28.84,-32.49,-14.19,7578
1.72,-11.57,-7.30,0.71,-1.59,0.49,-27.83,-31.54,-12.69,7612
-5.52,-4.66,-2.94,-0.58,-1.87,1.45,-27.07,-31.45,-11.20,7646
-1.67,-4.95,-5.10,-0.50,-5.41,3.22,-25.59,-28.92,-5.83,7680
-5.19,-39.20,1.60,-0.21,-5.42,3.78,-23.05,-26.91,-0.69,7714
9.16,-4.64,8.12,-0.17,-0.75,-0.02,-20.68,-27.17,0.57,7749
2.35,-12.14,-0.81,-0.66,-0.30,-0.50,-19.60,-29.00,0.99,7783
-1.21,-12.50,0.78,-0.76,1.12,-0.25,-19.70,-30.49,0.22,7817
4.69,-10.98,3.91,0.02,0.72,0.63,-20.46,-30.93,-0.72,7851
4.31,-9.88,5.61,0.28,0.49,0.25,-21.35,-30.99,-1.23,7885
-2.53,-7.60,-1.93,-0.17,0.37,-0.59,-21.66,-31.56,-0.77,7919
-4.89,-11.76,-1.97,0.82,0.61,0.04,-22.17,-31.60,-1.34,7954
-5.64,-9.43,1.32,1.32,-0.22,0.12,-22.95,-30.71,-0.09,7988
-0.88,-12.10,-4.68,1.22,-2.66,0.05,-21.54,-29.85,3.49,8022
-5.52,-9.26,-4.90,1.81,-3.20,0.21,-19.28,-28.24,6.58,8056
-2.44,-11.42,-5.17,1.29,-5.45,0.56,-14.24,-26.76,11.52,8090
-3.52,-11.70,-4.69,1.68,-3.83,0.87,-8.75,-24.32,14.50,8125
-11.68,-11.90,-2.64,1.95,-4.23,1.51,-4.75,-22.83,16.33,8159
-13.96,-17.96,-7.57,1.87,-7.18,2.57,4.57,-20.55,17.80,8193
-6.57,-18.80,-12.63,1.79,-6.59,2.98,12.83,-20.04,17.28,8227
-3.88,-14.07,-16.41,1.96,-4.34,3.28,17.80,-19.73,16.11,8261
-5.27,-17.91,-19.72,0.35,-1.06,4.19,18.21,-21.06,16.50,8295
13.00,-16.15,-18.96,-1.69,1.97,4.00,13.71,-24.82,17.01,8330
15.59,-16.26,-15.49,-3.46,4.92,2.30,5.74,-29.77,16.02,8364
20.30,-18.79,-3.23,-4.25,5.21,-0.70,-3.65,-35.53,11.27,8398
17.21,-17.39,7.49,-3.73,4.10,-3.42,-5.74,-40.70,7.04,8432
5.22,-13.70,14.68,-1.46,-1.24,-5.15,-0.41,-43.26,4.81,8466
11.41,-10.51,10.69,0.17,-6.28,-5.49,10.57,-43.28,3.33,8500
16.93,-9.74,4.28,1.33,-6.47,-5.27,20.83,-39.39,0.66,8535
11.45,-10.46,3.07,1.68,-7.96,-4.72,32.55,-32.74,-5.95,8569
1.98,-2.15,6.76,2.02,-6.02,-3.87,38.54,-26.40,-11.18,8603
-6.48,-8.68,6.83,2.42,-6.21,-2.94,41.44,-20.53,-20.64,8637
2.91,-14.47,4.65,3.39,-9.37,-2.26,41.68,-17.07,-32.91,8671
0.83,-6.32,-6.10,3.95,-10.68,-2.30,37.45,-15.70,-45.79,8706
10.43,-7.13,-4.11,3.95,-10.76,-2.40,25.52,-16.68,-58.58,8740
14.42,-6.92,-1.78,3.27,-8.87,-2.55,15.10,-18.78,-63.93,8774
8.20,-7.28,2.02,2.92,-7.52,-2.45,5.39,-21.24,-65.45,8808
4.64,-10.19,3.75,2.44,-6.81,-2.09,-4.82,-25.37,-64.43,8842
0.15,-9.09,-0.77,2.21,-6.50,-1.87,-12.53,-28.00,-61.01,8876
4.01,-8.32,-0.91,1.86,-5.75,-1.85,-18.84,-31.18,-57.04,8911
-7.02,-10.01,-6.27,1.38,-3.77,-1.86,-21.51,-34.14,-52.72,8945
-4.89,-11.82,-5.55,1.14,-3.40,-1.26,-23.27,-35.97,-49.40,8979
1.34,-10.41,-2.75,1.41,-4.40,-1.01,-25.59,-38.15,-43.89,9013
5.97,-8.40,2.67,1.87,-4.44,-0.62,-27.84,-39.35,-38.97,9047
5.58,-8.93,-2.87,2.13,-5.26,-0.56,-29.36,-40.43,-31.00,9082
2.52,-8.27,-11.21,2.10,-5.86,-0.23,-29.61,-40.09,-23.63,9116
1.21,-8.39,-13.34,2.04,-6.16,-0.16,-28.15,-40.46,-15.52,9150
3.92,-7.04,-8.37,2.20,-7.19,-0.54,-24.57,-39.51,-6.01,9184
10.41,-5.24,-12.62,2.12,-8.64,-1.09,-18.18,-39.07,2.78,9218
17.21,-4.36,-10.59,1.91,-8.37,-2.20,-6.80,-38.06,8.16,9252
13.69,-1.16,-3.56,1.64,-6.80,-2.58,2.89,-36.57,10.06,9287
8.50,-10.05,4.02,1.77,-7.63,-2.49,12.80,-34.99,9.62,9321
11.92,-4.49,2.82,2.35,-9.28,-2.52,26.07,-29.93,3.76,9355
4.97,-10.57,1.45,2.38,-8.81,-2.60,34.58,-25.71,-3.48,9389
4.12,-8.35,1.74,2.35,-7.29,-2.39,39.80,-20.23,-14.51,9423
6.18,-8.96,2.83,1.99,-6.56,-2.15,42.21,-17.47,-22.35,9458
-2.77,-9.96,0.40,1.52,-5.01,-2.29,41.92,-14.34,-28.59,9492
-4.19,-12.41,-2.90,1.34,-4.03,-1.88,40.95,-11.44,-36.35,9526
-0.75,-11.19,-3.50,1.68,-4.67,-1.46,38.37,-9.94,-42.30,9560
7.63,-7.57,-6.59,2.09,-5.90,-1.15,34.07,-9.82,-49.53,9594
9.40,-6.88,-7.54,2.19,-6.38,-0.97,27.04,-10.39,-55.95,9628
7.38,-7.13,-10.90,2.26,-6.78,-1.09,19.79,-12.60,-60.92,9663
7.90,-8.92,-6.35,2.67,-7.69,-1.24,9.06,-14.47,-64.12,9697
11.65,-4.80,-8.02,2.89,-8.13,-1.24,-1.84,-17.67,-64.64,9731
15.80,-5.16,-2.99,2.54,-7.82,-1.45,-11.63,-21.02,-62.06,9765
13.23,-6.75,1.78,1.98,-6.88,-1.85,-20.26,-25.12,-56.59,9799
7.53,-7.88,4.37,1.72,-6.66,-2.14,-25.27,-28.16,-51.24,9833
2.64,-8.28,2.84,1.62,-6.66,-2.30,-29.44,-32.29,-41.80,9868
0.41,-10.26,0.20,1.46,-6.88,-2.15,-30.88,-35.37,-34.84,9902
-2.22,-10.69,-1.34,1.46,-6.46,-2.20,-30.84,-37.26,-26.13,9936
3.64,-7.98,-4.51,1.43,-6.42,-2.16,-27.89,-40.51,-16.95,9970
5.69,-9.41,-5.20,1.50,-6.42,-2.10,-24.31,-41.63,-10.04,10004
5.88,-9.05,-6.47,1.87,-7.41,-1.84,-18.66,-42.98,-2.46,10039
9.68,-6.55,-4.84,2.09,-8.09,-1.67,-9.31,-42.02,2.72,10073
11.18,-6.73,-2.90,1.96,-7.86,-1.84,-0.10,-40.56,6.31,10107
10.29,-7.62,-0.71,1.63,-7.40,-2.17,10.74,-38.73,6.61,10141
5.95,-9.50,0.29,1.44,-7.15,-2.37,19.42,-36.10,3.60,10175
9.38,-7.32,1.14,1.44,-7.13,-2.12,27.59,-33.25,-0.54,10209
1.58,-12.20,-0.84,1.56,-8.12,-2.08,34.60,-30.37,-7.82,10244
6.45,-5.72,-3.09,1.62,-8.00,-2.31,38.83,-26.73,-17.48,10278
1.88,-10.32,-2.73,1.44,-7.20,-2.20,40.30,-23.25,-27.64,10312
1.89,-8.97,-4.42,1.57,-8.01,-2.41,38.99,-20.55,-37.40,10346
4.05,-9.62,-4.52,1.85,-8.30,-2.26,35.05,-18.69,-46.29,10380
7.32,-7.80,-7.00,2.25,-9.29,-2.63,25.80,-17.66,-56.43,10415
15.34,-3.77,-3.01,2.14,-8.54,-2.94,15.95,-17.57,-61.84,10449
9.50,-9.73,3.74,2.09,-7.80,-3.12,5.03,-19.23,-63.78,10483
12.20,-4.41,1.09,2.42,-8.26,-3.32,-4.40,-22.29,-63.93,10517
9.10,-5.77,4.44,2.42,-7.81,-3.39,-13.24,-26.44,-59.75,10551
9.47,-7.84,2.00,2.51,-7.38,-3.16,-19.73,-31.39,-53.49,10585
3.56,-9.51,1.69,2.62,-7.20,-2.60,-24.09,-35.59,-46.21,10620
-1.65,-11.47,5.15,2.06,-5.51,-2.34,-25.97,-39.56,-38.57,10654
-9.21,-13.71,-0.54,1.33,-3.57,-1.93,-25.59,-41.63,-35.47,10688
-4.65,-12.73,-10.35,1.29,-3.29,-1.54,-25.21,-43.04,-30.43,10722
6.26,-9.30,-6.54,1.53,-3.80,-1.34,-24.13,-45.13,-24.88,10756
13.05,-3.28,-4.92,1.26,-2.09,-1.40,-22.17,-46.02,-22.61,10791
8.95,-7.02,-9.30,1.35,-2.26,-0.84,-21.16,-47.00,-19.39,10825
5.14,-7.69,-0.51,1.73,-3.14,-0.61,-19.22,-47.41,-15.92,10859
6.44,-6.17,-4.29,2.43,-6.04,-0.60,-17.25,-46.96,-9.87,10893
7.80,-6.79,-9.43,2.92,-8.38,-0.53,-10.83,-45.66,-1.07,10927
14.18,-4.09,-11.79,3.21,-8.97,-0.69,-3.51,-43.64,4.63,10961
24.55,-4.05,-7.06,2.88,-9.36,-1.20,6.91,-41.48,6.49,10996
15.58,-5.18,-1.57,2.59,-7.36,-1.77,18.36,-37.28,4.94,11030
15.55,-6.21,4.55,1.96,-7.84,-2.04,26.60,-34.52,1.58,11064
12.75,-9.78,8.98,1.47,-7.25,-2.30,34.32,-29.93,-6.52,11098
2.87,-11.06,9.49,1.22,-6.21,-2.14,38.59,-26.88,-13.74,11132
-6.01,-11.28,2.95,0.97,-5.75,-1.59,40.70,-23.98,-20.72,11166
-12.11,-10.22,-2.68,0.74,-4.80,-1.28,40.69,-22.36,-27.83,11201
0.06,-8.95,-3.98,0.78,-4.44,-1.37,39.74,-20.67,-33.89,11235
1.61,-8.53,0.37,0.48,-3.27,-1.32,39.13,-19.03,-38.86,11269
0.51,-9.13,-4.06,0.54,-4.06,-1.21,36.63,-17.61,-44.14,11303
3.56,-9.94,-2.85,0.75,-5.97,-1.03,33.02,-16.95,-49.74,11337
6.28,-8.87,-6.71,1.07,-6.62,-1.39,25.50,-16.54,-56.97,11372
10.53,-4.81,-11.05,0.93,-6.24,-1.76,18.31,-16.72,-62.31,11406
10.18,-8.05,-5.38,0.68,-6.58,-2.33,11.33,-16.16,-64.24,11440
7.02,-7.14,2.16,0.82,-7.38,-3.14,0.69,-16.72,-65.92,11474
7.03,-7.20,-1.20,1.06,-8.20,-3.47,-9.43,-18.24,-64.18,11508
2.41,-10.91,-2.85,1.88,-10.03,-4.07,-21.51,-22.76,-57.04,11542
11.86,-8.00,1.66,2.31,-10.87,-4.00,-30.06,-28.11,-47.24,11577
12.21,-10.53,5.75,2.64,-9.97,-3.94,-33.37,-33.34,-35.19,11611
3.73,-9.59,9.43,2.70,-8.39,-3.29,-31.41,-38.45,-20.91,11645
3.01,-9.38,6.53,2.51,-7.55,-2.75,-26.62,-40.31,-10.92,11679
0.63,-11.61,5.90,2.12,-5.66,-2.28,-20.26,-41.49,-3.45,11713
-1.48,-9.88,-6.08,2.34,-6.23,-1.64,-14.67,-41.35,1.75,11748
-1.97,-9.42,-11.65,2.53,-5.58,-1.88,-7.37,-40.08,6.28,11782
2.96,-7.95,-1.00,2.03,-5.01,-1.99,1.32,-38.06,9.47,11816
3.35,-4.67,-1.37,1.92,-5.15,-1.89,8.30,-36.06,10.65,11850
4.62,-4.83,-4.01,1.83,-5.25,-1.99,15.80,-33.19,9.19,11884
4.57,-8.93,-7.39,1.81,-5.32,-2.23,24.31,-30.71,7.45,11918
7.16,-6.88,-4.02,1.60,-5.15,-1.97,30.39,-26.83,3.23,11953
5.08,-9.99,0.11,1.05,-3.67,-1.83,35.02,-24.01,-0.75,11987
7.43,-11.85,-4.27,1.25,-3.86,-0.98,38.23,-22.16,-4.71,12021
2.68,-12.72,-8.38,1.48,-3.72,-0.48,40.75,-20.93,-8.54,12055
-0.41,-8.27,-2.83,1.42,-3.84,0.07,42.91,-20.58,-14.95,12089
0.07,0.71,-0.64,1.28,-4.34,0.66,43.32,-21.18,-20.21,12124
-4.55,-6.87,1.76,1.81,-4.75,1.83,43.16,-24.26,-27.62,12158
0.08,-6.58,-3.76,2.46,-5.09,1.95,41.55,-27.46,-34.64,12192
7.95,-3.59,-8.51,2.36,-6.40,0.27,38.29,-30.47,-41.08,12226
-11.77,-31.65,-37.59,1.92,-6.02,-0.13,34.07,-31.85,-48.85,12260
-8.53,-2.43,-8.60,-1.14,-1.62,-2.00,32.15,-29.58,-52.09,12294
2.82,-19.81,2.04,-0.56,-1.86,-1.44,29.79,-27.27,-55.36,12329
-5.73,-8.97,-0.82,0.46,-1.50,-1.48,28.62,-26.38,-57.10,12363
4.08,-9.30,0.47,0.46,-1.79,-0.93,26.53,-25.56,-58.59,12397
3.75,-8.76,3.55,0.32,-1.64,-0.62,24.45,-25.02,-60.14,12431
1.84,-7.54,-2.72,0.34,-2.51,-0.95,21.82,-24.64,-61.47,12465
3.63,-9.92,-0.18,-0.22,-1.17,-0.58,19.32,-23.50,-63.12,12500
4.34,-9.92,0.13,-0.18,-1.58,-0.62,17.57,-23.19,-64.07,12534
6.13,-8.37,-1.84,-0.39,-1.68,-0.67,15.80,-22.65,-65.16,12568
4.61,-9.50,-0.87,-0.43,-0.64,-0.72,15.10,-21.38,-65.78,12602
4.49,-13.07,6.32,-0.13,-1.15,-0.83,14.32,-20.36,-65.81,12636
-0.61,-10.88,-4.37,-0.04,-1.79,-0.42,11.81,-20.24,-66.16,12670
-3.21,-9.37,-0.66,-0.36,-0.72,0.30,10.04,-20.02,-67.42,12705
-0.44,-6.81,-2.46,0.08,-1.16,0.63,8.89,-20.08,-68.20,12739
0.22,-9.67,-6.84,-0.19,-0.58,0.62,7.61,-20.55,-68.14,12773
-0.11,-10.46,-1.30,-0.35,-0.28,0.41,7.23,-20.10,-68.14,12807
-0.94,-9.89,3.25,0.05,-1.73,-0.29,5.42,-19.58,-68.37,12841
-0.70,-7.34,-1.61,0.34,-3.00,-1.05,1.45,-20.45,-68.21,12875
0.38,-7.79,-8.04,-0.04,-2.24,-0.53,-2.28,-20.21,-68.28,12910
-0.11,-12.41,-4.33,-0.69,0.47,0.41,-2.69,-19.66,-68.72,12944
-0.29,-11.85,4.00,-0.56,0.22,0.25,-2.08,-19.07,-68.71,12978
-0.22,-12.30,2.73,0.39,-2.43,-0.66,-4.27,-19.10,-68.71,13012
-0.81,-8.77,-2.63,0.72,-3.27,-0.92,-9.25,-20.48,-67.30,13046
-0.67,-9.27,-4.26,0.55,-2.91,-0.68,-13.43,-21.48,-65.95,13081
-2.97,-9.71,-4.11,0.52,-2.42,-0.16,-17.06,-22.04,-64.51,13115
-0.63,-8.35,-1.76,0.49,-2.57,-0.31,-20.23,-23.22,-63.08,13149
-2.02,-8.85,-2.71,0.50,-2.81,-0.52,-23.08,-23.55,-60.32,13183
-1.44,-8.51,-3.81,0.43,-2.81,-0.55,-26.72,-24.66,-57.09,13217
-3.80,-10.45,-4.73,0.13,-1.60,-0.53,-27.99,-25.17,-55.90,13251
-3.17,-12.36,-0.42,-0.01,-1.00,-0.24,-28.63,-25.23,-54.85,13286
-2.24,-11.18,1.08,-0.19,-0.61,-0.28,-29.32,-25.17,-54.03,13320
-2.52,-10.83,0.63,0.09,-1.08,-0.38,-29.49,-25.01,-52.86,13354
9.60,-13.66,3.58,0.24,-0.87,-1.52,-30.17,-26.53,-51.48,13388
-2.15,-9.65,5.95,1.46,1.30,-2.03,-28.22,-29.47,-51.15,13422
0.01,-9.35,5.87,1.85,-0.23,-1.93,-26.82,-31.99,-48.48,13457
1.86,-9.04,3.60,2.49,-1.67,-1.81,-26.45,-35.46,-46.39,13491
-0.25,-8.08,-0.52,2.87,-1.28,-1.91,-25.99,-38.13,-42.06,13525
-1.77,-6.93,-1.54,2.65,-0.83,-1.68,-25.02,-40.88,-38.06,13559
4.92,-5.98,-0.41,2.14,0.87,-1.04,-23.91,-41.57,-35.81,13593
1.76,-7.00,-1.26,1.58,2.54,-0.84,-22.17,-42.66,-35.63,13627
-1.23,-7.95,-0.15,0.79,1.59,-0.11,-21.50,-42.85,-37.31,13662
4.58,1.92,-9.26,-0.04,-0.34,0.60,-21.82,-41.82,-36.39,13696
-15.42,-39.20,-18.74,-2.11,-4.58,1.70,-23.09,-40.32,-35.82,13730
-19.73,-5.41,1.88,-1.80,3.94,0.76,-22.70,-38.86,-40.09,13764
0.60,-7.90,5.28,-0.89,-1.48,-0.15,-22.93,-37.99,-40.49,13798
4.85,-10.10,-2.15,-0.15,-1.84,0.17,-24.20,-37.47,-39.59,13833
4.15,-9.69,1.22,-0.20,-0.36,0.06,-24.71,-37.17,-39.56,13867
2.38,-9.31,-1.56,-0.03,-1.00,-0.19,-25.33,-36.63,-38.73,13901
1.62,-9.43,-0.76,-0.18,-0.30,-0.14,-25.80,-36.69,-38.73,13935
-0.22,-10.39,2.34,-0.09,-0.38,-0.07,-25.40,-36.63,-38.70,13969
-0.78,-10.44,0.64,0.09,-0.83,-0.14,-25.50,-35.94,-38.37,14003
-1.93,-9.44,4.30,0.40,-1.08,0.05,-26.40,-36.32,-37.09,14038
0.82,-10.42,1.79,0.66,-1.85,0.08,-27.14,-36.03,-35.05,14072
-0.77,-10.49,-0.50,0.70,-1.48,0.01,-27.99,-35.49,-32.08,14106
0.36,-10.34,-2.67,0.67,-1.05,0.09,-28.68,-35.49,-31.13,14140
1.48,-9.65,-0.22,0.49,-0.09,0.12,-29.17,-35.15,-30.56,14174
2.12,-9.13,0.88,0.44,0.18,0.16,-29.35,-34.86,-30.30,14208
3.19,-9.28,0.87,0.55,-0.32,-0.06,-29.90,-34.62,-29.68,14243
1.27,-9.51,0.06,0.55,-0.02,-0.19,-29.76,-34.54,-30.24,14277
-0.49,-10.54,2.26,0.67,0.15,0.04,-29.74,-34.57,-29.10,14311
-1.27,-11.86,4.02,0.87,0.20,-0.13,-29.95,-34.64,-28.65,14345
-4.88,-14.19,2.13,1.16,0.60,-0.46,-30.27,-35.09,-28.31,14379
-2.79,-14.36,-2.89,1.66,-0.11,-0.86,-29.58,-35.59,-27.87,14414
-4.04,-15.57,-7.90,2.30,-0.48,-1.25,-29.09,-36.73,-26.69,14448
16.26,-12.15,-14.81,1.02,-2.87,-1.68,-27.55,-38.32,-23.27,14482
6.34,-6.35,-6.43,-0.45,-4.31,-0.77,-25.78,-39.64,-20.83,14516
-4.89,-1.89,-4.41,-0.29,-5.56,1.24,-24.71,-39.93,-15.39,14550
1.03,-3.34,-2.01,0.15,-6.28,2.72,-24.45,-37.71,-10.36,14584
2.88,-6.84,-0.16,0.89,-7.42,3.81,-22.51,-34.45,-3.30,14619
18.48,-6.50,-20.48,0.78,-6.67,3.83,-20.36,-31.13,1.68,14653
30.10,-0.22,-8.16,-0.01,0.59,-0.20,-21.85,-30.17,1.30,14687
8.11,-9.11,4.25,-0.70,2.06,-0.62,-23.06,-31.92,-1.74,14721
6.19,-11.54,-2.01,-1.02,0.91,-1.00,-23.88,-33.31,-3.10,14755
0.77,-11.39,-0.79,-1.14,2.30,-0.83,-24.60,-34.46,-6.72,14790
1.98,-11.37,7.13,-0.43,1.72,-0.52,-25.56,-36.04,-9.11,14824
1.85,-9.58,2.28,0.10,0.80,-0.86,-25.58,-37.17,-10.92,14858
-2.31,-12.85,-1.07,0.44,0.80,-0.50,-25.33,-37.30,-11.15,14892
3.68,-11.88,0.42,0.89,0.50,-0.54,-24.90,-37.52,-10.64,14926
-0.45,-7.11,-0.69,1.15,-0.57,-0.90,-24.50,-37.61,-9.18,14960
-3.07,-9.98,-0.88,1.91,-1.19,-0.34,-23.25,-37.27,-7.29,14995
-7.35,-14.31,-0.25,2.59,-1.78,0.29,-22.29,-35.87,-4.91,15029
-4.56,-15.13,2.02,3.09,-2.30,0.70,-21.03,-33.97,0.10,15063
-5.48,-13.01,-0.97,3.33,-3.86,0.94,-18.33,-31.31,5.16,15097
-1.19,-11.51,-3.93,3.28,-4.47,1.17,-15.21,-28.50,8.94,15131
-7.35,-12.60,-3.41,3.27,-5.03,1.64,-9.24,-23.79,13.11,15166
-7.62,-16.68,-5.43,3.03,-5.59,1.96,-3.52,-20.70,15.78,15200
-4.18,-14.73,-3.81,2.62,-4.64,1.99,1.94,-17.41,16.06,15234
-9.30,-17.06,-2.40,2.57,-4.36,2.38,8.14,-13.93,15.42,15268
-6.42,-15.93,-6.97,2.66,-5.23,2.58,13.53,-12.22,13.96,15302
-3.33,-21.13,-10.78,2.27,-5.84,2.67,21.86,-10.08,11.56,15336
-11.84,-23.38,-7.72,2.78,-5.56,3.24,27.19,-9.50,7.47,15371
-4.82,-21.64,-7.25,2.57,-5.58,3.68,32.97,-10.20,2.70,15405
-1.36,-20.69,-9.88,1.68,-4.59,3.87,38.53,-13.11,-3.98,15439
-1.63,-19.45,-10.95,1.45,-2.98,4.53,41.22,-17.61,-6.61,15473
2.14,-19.53,-15.44,0.70,-2.88,4.95,42.12,-24.71,-11.08,15507
12.40,-17.53,-16.74,-0.80,-0.92,4.73,40.65,-32.26,-14.13,15541
13.29,-13.51,-19.22,-1.89,1.73,3.66,37.36,-37.59,-13.36,15576
16.45,-14.44,-13.37,-3.78,4.07,1.67,33.09,-42.34,-13.05,15610
16.88,-15.61,-2.55,-4.47,2.87,-0.84,31.28,-44.12,-14.25,15644
16.52,-14.54,1.49,-3.93,0.99,-2.44,32.83,-42.25,-18.01,15678
16.12,-15.97,8.86,-2.56,-1.82,-4.13,36.31,-38.00,-21.66,15712
28.00,-27.16,5.76,-1.11,-3.82,-5.84,39.26,-32.05,-26.63,15747
4.07,-10.73,10.55,0.48,-5.70,-5.88,41.25,-22.99,-34.04,15781
7.28,-0.32,11.17,1.21,-5.91,-4.78,39.58,-16.94,-41.33,15815
0.73,-7.45,9.49,1.50,-5.83,-2.88,35.95,-13.40,-49.39,15849
-2.29,-20.28,9.48,2.21,-8.30,-2.02,28.63,-12.57,-57.44,15883
0.18,-12.67,1.06,3.50,-9.89,-2.33,18.44,-14.44,-64.19,15917
7.60,-10.77,-2.83,3.48,-10.37,-2.30,2.78,-18.08,-66.95,15952
10.41,-7.32,0.41,3.30,-9.25,-2.53,-9.16,-22.71,-64.66,15986
7.14,-8.64,3.34,2.80,-7.13,-2.78,-17.92,-27.55,-60.20,16020
3.47,-10.43,2.84,2.82,-7.09,-2.47,-24.82,-32.01,-52.60,16054
-2.18,-9.64,1.03,2.88,-7.04,-2.11,-28.54,-36.03,-44.34,16088
0.59,-9.28,-3.78,2.76,-6.87,-2.19,-30.04,-39.80,-34.51,16123
3.54,-7.17,-5.65,2.71,-6.37,-2.33,-29.52,-42.47,-26.31,16157
4.60,-7.45,-4.73,2.68,-5.85,-2.11,-26.86,-43.96,-17.96,16191
4.43,-8.32,-2.44,2.72,-5.97,-1.83,-21.73,-44.75,-8.86,16225
5.08,-7.51,-1.41,2.64,-6.20,-1.62,-16.78,-44.05,-2.63,16259
5.11,-7.84,-5.83,2.43,-6.20,-1.57,-9.87,-42.91,4.25,16293
1.20,-8.85,-5.33,2.28,-5.57,-1.41,-3.48,-41.08,7.53,16328
-0.31,-8.88,-9.27,2.27,-5.92,-1.08,3.70,-39.17,9.34,16362
2.21,-7.53,-9.84,2.63,-8.10,-0.80,13.68,-35.81,9.38,16396
10.69,-6.05,-12.97,2.85,-9.47,-0.64,24.33,-32.90,7.35,16430
11.16,-6.79,-13.56,2.68,-8.57,-0.57,36.41,-29.49,-0.76,16464
14.48,-4.64,-13.89,1.95,-7.58,-0.35,39.33,-26.98,-8.93,16499
14.92,-5.94,-8.46,1.83,-6.62,-0.58,42.27,-26.15,-17.68,16533
10.60,-5.52,0.48,1.73,-6.83,-1.19,42.85,-24.90,-28.33,16567
12.83,-7.44,3.76,1.68,-7.86,-1.78,41.19,-22.80,-38.53,16601
8.93,-10.83,2.52,1.70,-8.22,-2.30,37.39,-21.18,-51.36,16635
10.65,-6.85,1.76,1.58,-6.99,-3.01,29.98,-18.94,-56.75,16669
9.39,-5.64,-0.07,1.40,-5.70,-3.05,24.03,-17.68,-61.20,16704
3.98,-15.01,0.29,1.25,-6.37,-3.19,16.24,-17.01,-63.74,16738
-3.51,-11.92,0.48,2.16,-5.88,-2.11,8.96,-18.18,-65.96,16772
4.24,-10.87,-3.06,2.51,-6.74,-1.84,0.85,-20.94,-66.66,16806
5.74,-7.61,-2.81,2.46,-5.58,-1.63,-7.60,-24.99,-64.18,16840
3.22,-8.74,-3.17,2.26,-4.96,-1.53,-13.27,-27.68,-61.90,16875
2.83,-9.04,-4.00,2.52,-5.04,-1.30,-18.59,-31.44,-56.75,16909
4.37,-7.68,-5.26,2.87,-5.77,-1.14,-22.93,-34.39,-51.51,16943
5.12,-7.55,-4.90,2.93,-6.12,-1.19,-26.69,-37.62,-43.83,16977
6.28,-6.83,-8.84,3.05,-6.70,-1.12,-28.76,-40.18,-34.08,17011
6.43,-7.23,-6.04,3.09,-6.64,-1.14,-28.88,-41.51,-25.17,17045
6.51,-6.05,-8.07,3.21,-7.05,-1.04,-26.95,-41.65,-15.73,17080
8.76,-6.90,-7.52,3.39,-8.05,-0.94,-21.88,-40.24,-4.97,17114
9.52,-3.63,-8.17,3.40,-8.92,-0.97,-15.30,-38.02,3.81,17148
11.99,-6.57,-9.04,3.14,-8.93,-1.26,-3.61,-34.49,9.94,17182
11.73,-1.94,-7.59,2.85,-8.03,-1.59,7.03,-31.20,11.98,17216
8.38,-5.70,-2.69,2.55,-7.33,-1.85,17.09,-27.73,10.96,17250
8.97,-6.12,-1.11,2.56,-7.58,-1.69,27.27,-23.56,5.23,17285
9.98,-7.54,-2.91,2.57,-7.90,-1.59,35.02,-20.07,-1.24,17319
9.10,-8.12,-1.72,2.45,-7.49,-1.50,40.69,-16.25,-11.94,17353
4.76,-6.91,-2.83,2.18,-6.96,-1.66,42.34,-13.96,-21.10,17387
5.30,-8.33,-4.79,2.00,-6.42,-1.59,42.01,-12.35,-30.99,17421
4.69,-8.89,-2.79,1.97,-6.59,-1.56,39.24,-11.15,-41.76,17456
2.92,-7.88,-3.53,2.11,-6.64,-1.38,34.87,-11.02,-48.74,17490
7.70,-7.59,-6.36,2.23,-7.70,-1.33,27.81,-11.85,-57.82,17524
8.95,-6.87,-6.85,2.26,-7.41,-1.49,17.71,-13.91,-63.59,17558
6.83,-6.75,-6.99,2.25,-7.61,-1.62,8.16,-16.33,-65.14,17592
8.02,-7.82,-3.43,2.19,-7.58,-1.74,-3.41,-19.23,-65.24,17626
4.17,-9.06,-2.04,2.62,-8.20,-1.80,-12.54,-22.86,-62.15,17661
6.28,-7.91,-7.25,3.18,-9.78,-1.93,-21.98,-27.30,-54.88,17695
11.48,-4.45,-8.76,3.30,-10.39,-2.16,-30.43,-31.45,-42.21,17729
13.44,-6.02,-1.81,2.84,-7.97,-2.39,-32.40,-35.44,-31.10,17763
12.01,-5.36,1.13,2.35,-6.50,-2.41,-30.53,-37.43,-20.10,17797
4.61,-7.79,4.46,2.06,-5.45,-2.37,-27.36,-39.32,-12.72,17832
-2.63,-9.53,-2.98,1.97,-4.83,-2.49,-23.17,-40.11,-6.83,17866
-0.86,-11.27,-6.54,2.34,-5.35,-1.89,-17.07,-39.74,-0.28,17900
6.07,-7.76,-3.04,2.63,-5.35,-1.38,-11.65,-38.15,5.51,17934
10.13,-5.33,-1.23,2.51,-5.18,-1.24,-5.38,-35.60,8.75,17968
7.42,-6.54,0.33,2.31,-4.81,-1.20,1.99,-32.67,11.90,18002
3.42,-10.43,-4.57,2.12,-4.59,-1.34,8.10,-30.05,12.80,18037
1.27,-8.90,-8.17,2.32,-3.93,-0.97,14.59,-26.73,13.01,18071
5.09,-6.19,-4.46,2.09,-3.19,-0.94,18.74,-23.47,12.98,18105
5.84,-6.73,-4.04,1.82,-3.89,-0.70,23.46,-21.53,11.81,18139
8.10,-6.98,-1.94,1.89,-5.17,-0.53,30.24,-18.77,7.40,18173
9.67,-7.74,-3.52,2.37,-5.92,-0.68,35.88,-16.25,1.01,18208
12.02,-7.46,-9.99,3.13,-7.64,-0.74,41.39,-13.12,-9.47,18242
9.88,-6.13,-9.04,3.30,-8.43,-0.58,43.99,-11.09,-21.56,18276
7.07,-4.48,-9.53,3.41,-8.72,-0.22,43.58,-11.74,-34.00,18310
10.87,-6.17,-3.66,3.52,-9.69,0.00,37.26,-13.90,-49.44,18344
10.52,-6.66,-4.06,3.67,-11.17,-0.31,26.51,-17.22,-60.29,18378
23.95,-8.36,-6.90,2.78,-10.20,-1.29,13.23,-20.17,-65.10,18413
21.37,-0.23,1.61,1.56,-5.98,-2.24,1.48,-22.13,-66.50,18447
5.65,-10.46,8.55,0.96,-3.62,-2.63,-3.58,-22.87,-65.54,18481
-4.80,-8.81,9.14,0.96,-4.84,-2.76,-9.32,-24.61,-63.87,18515
-7.16,-10.08,-3.37,1.62,-4.84,-2.79,-15.01,-26.72,-61.82,18549
0.58,-9.88,-4.04,2.36,-5.76,-2.01,-19.95,-29.86,-57.29,18583
10.99,-6.07,-0.28,2.41,-5.81,-1.83,-25.15,-32.90,-50.60,18618
8.20,-7.26,1.71,2.47,-5.17,-1.86,-28.34,-36.36,-43.31,18652
6.54,-11.04,-0.02,2.35,-5.02,-1.57,-29.29,-39.17,-35.97,18686
4.20,-11.69,-2.94,2.40,-4.78,-1.21,-30.17,-40.70,-27.92,18720
4.63,-10.36,-3.35,2.56,-4.40,-0.92,-28.98,-41.44,-21.76,18754
8.41,-7.41,-6.17,2.39,-3.72,-0.88,-27.81,-41.60,-14.32,18789
2.52,-7.13,-1.97,2.22,-3.53,-0.67,-25.24,-41.00,-9.25,18823
3.78,-7.31,-1.05,2.43,-4.43,-0.63,-22.76,-40.11,-3.70,18857
9.86,-6.40,-7.67,2.97,-6.69,-0.72,-16.62,-38.31,4.66,18891
10.27,-4.43,-6.92,3.15,-7.37,-0.69,-8.54,-35.05,10.90,18925
10.71,-6.07,-8.93,3.09,-8.00,-0.69,3.71,-30.96,14.28,18959
10.86,-4.42,-6.26,2.98,-9.21,-0.50,14.92,-27.24,13.45,18994
8.48,-4.19,-7.86,2.70,-9.42,-0.71,25.75,-24.83,8.51,19028
12.02,-6.12,-6.62,2.44,-9.22,-1.13,36.41,-21.32,-1.86,19062
18.31,-6.87,-5.53,2.02,-8.98,-1.51,41.41,-18.56,-12.77,19096
14.44,-7.31,-2.01,1.67,-8.22,-2.00,42.85,-15.92,-26.56,19130
12.84,-6.71,2.84,1.28,-7.32,-2.57,41.27,-12.15,-37.26,19165
5.63,-10.31,5.15,1.24,-7.25,-2.70,37.09,-9.76,-47.12,19199
2.97,-9.67,2.96,1.46,-7.56,-2.60,28.87,-7.47,-55.39,19233
3.55,-9.41,0.13,1.81,-7.97,-2.48,20.21,-7.31,-61.09,19267
7.92,-7.21,-2.63,1.86,-7.48,-2.42,10.13,-7.83,-64.35,19301
7.27,-6.55,-0.65,1.94,-7.22,-2.48,-1.83,-9.81,-65.05,19335
6.19,-9.12,-2.45,1.84,-6.63,-2.61,-11.36,-12.09,-63.23,19370
9.62,-8.54,0.06,2.13,-7.45,-2.41,-21.44,-16.11,-58.14,19404
8.09,-6.82,0.61,2.33,-7.49,-2.40,-28.57,-19.42,-51.45,19438
11.00,-7.72,-0.38,2.35,-7.24,-2.25,-33.56,-23.68,-43.22,19472
7.42,-7.42,0.61,2.29,-6.80,-2.13,-36.22,-27.61,-31.58,19506
5.78,-8.41,0.54,2.14,-6.10,-1.94,-35.93,-30.47,-22.41,19541
5.13,-9.24,-0.58,2.07,-6.29,-1.83,-33.84,-31.95,-11.63,19575
4.64,-8.31,-3.35,2.10,-6.25,-1.71,-28.18,-32.84,-4.33,19609
5.99,-7.04,-3.62,1.99,-6.29,-1.49,-22.60,-32.91,3.52,19643
8.83,-7.93,-0.78,1.84,-6.56,-1.41,-14.09,-31.73,9.51,19677
6.87,-7.20,-1.12,1.58,-6.21,-1.37,-6.31,-30.69,12.44,19711
3.49,-7.52,-2.87,1.36,-5.99,-1.36,2.44,-28.69,13.93,19746
1.58,-7.91,-2.97,1.26,-6.27,-1.32,11.88,-27.38,12.57,19780
0.45,-8.84,-4.60,1.15,-7.77,-1.24,20.77,-25.59,10.13,19814
7.29,-8.83,-4.22,1.08,-8.51,-1.13,31.48,-24.16,1.78,19848
10.00,-10.23,-4.54,0.74,-7.65,-1.08,37.40,-22.89,-7.28,19882
16.48,-7.92,-5.04,0.27,-6.54,-1.50,40.75,-21.25,-14.57,19916
20.38,-6.15,-6.81,-0.13,-6.27,-2.12,42.11,-17.85,-24.12,19951
15.68,-10.89,-1.20,-0.17,-5.75,-3.23,41.07,-13.62,-31.51,19985
9.60,-10.44,4.45,0.38,-6.48,-4.38,38.28,-7.57,-40.44,20019
6.76,-6.40,6.84,0.87,-8.40,-4.14,31.48,-3.07,-49.97,20053
-2.23,-7.51,5.75,1.55,-11.03,-3.20,20.29,-1.55,-58.81,20087
12.48,-10.26,-2.87,1.10,-15.25,-3.78,-1.23,-0.82,-63.36,20122
10.38,-3.94,13.37,2.24,-13.10,-4.32,-18.61,-4.46,-57.95,20156
-3.11,5.68,17.94,4.66,-12.52,-1.69,-31.60,-9.63,-47.35,20190
-12.69,20.17,-28.35,4.71,-11.04,1.38,-38.75,-11.68,-28.69,20224
-39.20,2.29,23.32,3.23,4.06,0.83,-38.13,-10.68,-32.62,20258
-8.07,-8.36,20.43,2.59,-7.20,4.86,-37.56,-5.01,-24.44,20292
-7.16,-9.94,-6.07,2.62,-4.15,5.76,-34.10,0.61,-20.52,20327
-29.31,-18.21,16.38,4.31,0.82,5.45,-32.18,5.82,-22.68,20361
5.13,-13.16,-10.50,2.36,0.22,2.47,-30.11,8.64,-21.85,20395
-16.70,-6.13,-10.87,2.71,3.73,0.91,-30.31,9.31,-27.26,20429
-4.28,-6.24,-7.34,2.17,2.44,2.15,-29.25,10.33,-31.26,20463
-5.72,-8.41,-10.44,1.47,3.09,2.86,-26.79,13.26,-33.57,20498
-9.56,-14.56,-10.98,0.17,0.29,3.32,-23.15,15.40,-33.72,20532
-1.32,-10.61,-10.71,-0.47,0.51,2.89,-19.48,18.53,-33.59,20566
-7.76,-7.70,-10.84,-1.29,2.30,2.47,-15.89,20.24,-32.68,20600
-4.72,-6.14,-9.13,-2.15,4.36,2.69,-11.12,22.24,-32.02,20634
0.24,-9.32,-11.99,-3.08,6.54,2.24,-5.90,23.03,-27.92,20668
-4.11,-7.59,-14.37,-3.33,7.94,1.13,-3.60,23.08,-23.52,20703
-6.65,-7.64,-9.04,-3.34,7.99,-0.59,-5.31,23.14,-19.25,20737
-12.04,-10.31,-2.82,-2.94,5.20,-1.96,-9.43,22.76,-16.14,20771
-37.27,18.62,-5.94,-1.34,2.63,-2.51,-14.07,22.27,-14.83,20805
-4.34,-20.87,-11.56,0.36,-6.42,-3.87,-17.92,20.49,-10.84,20839
-24.07,-10.43,-5.80,-1.54,-7.18,-3.97,-19.51,18.40,-5.44,20874
-11.55,-4.81,-5.40,-2.81,-6.55,-2.01,-17.82,15.11,6.26,20908
-17.05,-4.19,2.73,-2.25,-2.40,-1.09,-16.28,12.25,7.75,20942
-19.38,-3.68,6.10,-1.71,-2.12,-0.37,-15.62,10.32,10.84,20976
-12.97,-3.69,7.12,-1.36,-3.09,0.28,-12.19,9.19,13.14,21010
-8.64,-1.77,2.84,-1.01,-4.19,0.67,-7.21,8.05,14.28,21044
-4.30,-0.64,1.61,-0.91,-3.17,0.76,-3.27,6.66,15.32,21079
-3.49,-2.13,0.95,-0.86,-1.77,0.84,0.61,5.32,15.43,21113
-3.45,-1.82,2.28,-1.00,-0.76,0.79,2.27,4.57,15.62,21147
-3.43,-1.91,3.41,-1.41,-0.58,0.61,3.10,2.75,16.08,21181
-2.50,-1.27,4.65,-1.58,-1.02,0.50,4.38,0.41,16.38,21215
-1.59,-1.29,5.60,-1.47,-1.37,0.38,5.80,-1.43,16.54,21250
-2.56,-0.87,7.19,-1.26,-1.60,0.09,8.14,-3.48,16.27,21284
-2.46,-0.14,8.24,-1.19,-1.41,-0.17,9.28,-4.95,15.46,21318
-1.45,-0.87,9.64,-1.24,-0.92,-0.28,10.63,-5.89,16.34,21352
-2.41,-1.36,11.29,-1.18,-0.01,-0.39,10.17,-7.63,16.09,21386
-4.70,-1.83,10.67,-0.83,0.09,-0.51,9.31,-8.97,16.38,21420
-3.73,-5.50,12.94,-0.58,0.00,-0.62,8.30,-10.03,16.68,21455
-7.83,-5.92,12.34,0.19,1.96,1.56,6.18,-10.10,17.39,21489
-1.96,-2.66,1.70,0.32,0.43,1.30,3.95,-9.51,17.44,21523
-3.08,-5.28,1.60,-0.42,-0.18,0.57,3.03,-10.06,17.57,21557
-8.52,-2.63,0.73,-0.12,1.71,-0.07,0.57,-9.63,17.44,21591
-12.56,-4.03,1.72,-0.02,1.77,-0.31,-2.31,-9.56,17.36,21625
-10.67,1.78,-1.18,0.03,1.19,-0.06,-4.71,-9.79,17.14,21660
-10.61,-0.86,1.16,-0.15,0.94,-0.01,-6.96,-9.46,17.00,21694
-9.35,-0.86,1.04,-0.18,0.53,0.20,-7.80,-9.79,16.90,21728
-8.21,-0.83,0.86,-0.13,0.43,0.34,-8.62,-10.06,16.59,21762
-9.08,-0.10,1.52,-0.08,0.53,0.38,-9.50,-9.49,16.69,21796
-10.37,-0.11,1.67,-0.02,0.41,0.38,-10.87,-9.18,16.57,21831
-10.76,0.22,2.08,0.01,0.40,0.27,-11.34,-9.31,16.44,21865
-11.47,0.20,2.17,0.05,0.43,0.12,-12.63,-9.35,16.11,21899
-11.35,0.33,1.94,0.11,0.40,-0.08,-13.10,-9.47,16.11,21933
-10.42,0.75,1.28,0.16,0.50,-0.21,-13.93,-8.97,16.41,21967
-10.52,0.25,0.85,0.15,0.36,-0.25,-14.25,-9.37,16.43,22001
-9.34,0.02,0.56,0.12,0.27,-0.22,-14.92,-8.78,14.60,22036
-9.75,-0.10,0.35,0.07,0.15,-0.13,-15.19,-8.81,15.40,22070
-9.59,-0.03,0.61,0.06,0.04,-0.08,-15.54,-9.02,15.27,22104
-9.81,0.03,0.50,0.04,-0.06,-0.03,-16.03,-9.12,14.94,22138
-10.06,-0.27,0.67,0.03,-0.04,-0.05,-15.54,-9.19,15.80,22172
-10.11,0.02,0.86,0.04,-0.20,-0.07,-15.90,-9.49,15.14,22207
-10.17,0.42,0.85,0.03,-0.14,-0.08,-15.49,-8.99,15.52,22241
-9.68,0.77,0.75,0.00,-0.30,-0.08,-15.11,-9.08,16.09,22275
-9.64,0.88,0.96,-0.01,-0.22,-0.05,-15.00,-9.16,15.76,22309
-9.13,0.77,1.24,-0.04,-0.32,-0.02,-13.93,-9.19,16.40,22343
-9.08,0.78,1.20,-0.02,-0.29,0.02,-14.16,-9.16,16.22,22377
-8.89,0.80,1.21,0.05,-0.18,0.02,-13.56,-8.83,16.57,22412
-9.88,1.26,1.38,0.09,-0.02,0.00,-13.52,-8.55,15.78,22446
-10.18,1.16,1.22,0.10,-0.07,-0.01,-13.87,-9.06,16.62,22480
-10.04,0.84,1.19,0.06,-0.08,-0.02,-13.37,-8.64,16.59,22514
-10.13,0.61,1.44,0.04,-0.11,-0.03,-13.69,-8.81,16.38,22548
-10.18,0.44,1.15,0.02,-0.26,-0.05,-13.37,-8.80,16.33,22583
-9.76,0.32,1.31,0.02,-0.26,-0.07,-13.11,-9.08,16.81,22617
-9.83,0.42,1.47,0.02,-0.25,-0.07,-12.70,-8.73,16.00,22651
-9.49,0.36,1.48,0.03,-0.27,-0.06,-12.41,-8.74,16.30,22685
-9.75,0.39,1.68,0.05,-0.22,-0.07,-12.12,-9.00,16.54,22719
-9.98,0.36,1.74,0.04,-0.25,-0.07,-11.27,-8.75,16.15,22753
-9.84,0.37,1.82,0.02,-0.31,-0.07,-11.28,-8.87,16.22,22788
-9.78,0.46,2.00,0.02,-0.29,-0.06,-10.44,-9.06,16.19,22822
-9.45,0.36,2.13,0.01,-0.27,-0.07,-10.44,-9.21,16.08,22856
-9.31,0.35,2.19,0.01,-0.23,-0.06,-10.32,-9.19,16.44,22890
-9.43,0.36,2.38,0.02,-0.14,-0.07,-10.10,-9.22,16.44,22924
-9.55,0.44,2.27,0.03,-0.15,-0.07,-9.32,-9.60,16.49,22958
-9.33,0.54,2.36,0.04,-0.06,-0.09,-9.46,-9.15,16.25,22993
-9.46,0.64,2.36,0.05,-0.02,-0.08,-9.76,-9.13,16.03,23027
-9.30,0.58,2.09,0.05,0.01,-0.09,-9.63,-9.03,16.21,23061
-9.74,0.69,2.04,0.06,0.06,-0.09,-9.49,-9.13,16.28,23095
-9.67,0.62,2.05,0.05,0.02,-0.08,-9.91,-8.86,16.28,23129
-9.60,0.56,1.85,0.04,-0.02,-0.07,-10.07,-8.99,15.97,23164
-9.60,0.57,1.96,0.04,-0.00,-0.08,-10.33,-9.50,15.83,23198
-9.65,0.73,1.97,0.04,-0.02,-0.07,-10.04,-8.89,16.72,23232
-9.53,0.60,1.92,0.04,-0.01,-0.07,-10.23,-9.02,16.46,23266
-9.53,0.61,2.02,0.05,0.01,-0.08,-10.03,-9.34,16.11,23300
-9.58,0.61,1.97,0.05,-0.01,-0.07,-10.23,-9.11,16.27,23334
-9.57,0.45,1.99,0.06,0.02,-0.07,-10.68,-9.16,16.31,23369
-9.71,0.57,1.92,0.05,0.01,-0.06,-10.68,-9.03,16.60,23403
-9.59,0.57,1.95,0.05,0.01,-0.06,-10.77,-8.70,16.41,23437
-9.58,0.61,1.80,0.05,-0.00,-0.06,-10.80,-8.78,16.11,23471
-9.72,0.61,1.81,0.05,-0.00,-0.06,-10.60,-9.08,16.43,23505
-9.75,0.56,1.81,0.05,-0.01,-0.06,-11.25,-8.86,16.28,23540
-9.84,0.48,1.85,0.05,-0.02,-0.07,-11.68,-8.26,16.34,23574
-9.67,0.41,1.83,0.05,-0.05,-0.07,-11.41,-8.51,16.35,23608
-9.56,0.43,1.85,0.04,-0.04,-0.07,-11.46,-8.37,17.16,23642
-9.69,0.51,1.89,0.05,-0.05,-0.07,-11.09,-8.42,16.78,23676
-9.57,0.51,1.84,0.04,-0.05,-0.07,-11.34,-8.30,16.41,23710
-9.55,0.61,1.92,0.04,-0.04,-0.06,-11.24,-8.56,15.61,23745
-9.56,0.57,1.95,0.05,-0.01,-0.07,-11.06,-8.65,16.71,23779
-9.68,0.69,1.92,0.05,0.00,-0.08,-11.27,-8.75,16.59,23813
-9.64,0.58,1.77,0.05,-0.01,-0.08,-11.44,-8.84,16.62,23847
-9.63,0.58,1.68,0.05,0.02,-0.08,-11.33,-8.97,16.66,23881
-9.71,0.60,1.72,0.05,-0.01,-0.07,-10.93,-8.62,16.73,23916
-9.74,0.57,1.64,0.05,-0.02,-0.07,-11.46,-8.86,16.25,23950
-9.77,0.64,1.78,0.04,-0.02,-0.07,-11.49,-8.43,16.63,23984
-9.70,0.55,1.80,0.04,-0.04,-0.07,-12.03,-8.49,16.68,24018
-9.58,0.60,1.80,0.04,-0.03,-0.08,-11.50,-8.77,16.43,24052
-9.46,0.54,1.73,0.04,-0.03,-0.08,-11.66,-8.89,16.54,24086
-9.62,0.62,1.75,0.05,-0.00,-0.08,-11.46,-8.40,16.73,24121
-9.65,0.58,1.67,0.05,0.00,-0.07,-11.47,-8.51,16.43,24155
-9.68,0.55,1.77,0.05,0.02,-0.08,-12.20,-8.68,16.16,24189
-9.79,0.61,1.71,0.05,-0.02,-0.07,-12.03,-8.43,16.02,24223
-9.64,0.51,1.61,0.05,-0.01,-0.08,-12.26,-8.54,16.50,24257
-9.75,0.68,1.59,0.05,-0.01,-0.08,-12.00,-8.43,16.40,24291
-9.80,0.73,1.49,0.05,-0.02,-0.08,-12.03,-8.67,17.36,24326
-9.76,0.59,1.53,0.03,-0.06,-0.07,-12.15,-8.89,17.01,24360
-9.72,0.53,1.71,0.02,-0.06,-0.06,-12.06,-8.83,17.11,24394
-9.74,0.57,1.81,0.02,-0.07,-0.06,-12.04,-8.64,17.17,24428
-9.53,0.58,1.76,0.04,-0.06,-0.07,-11.79,-8.62,16.11,24462
-9.59,0.54,1.73,0.05,-0.01,-0.08,-11.72,-8.40,17.04,24497
-9.63,0.62,1.70,0.06,0.02,-0.08,-11.90,-8.39,16.37,24531
-9.67,0.59,1.59,0.06,0.01,-0.08,-11.65,-8.35,16.41,24565
-9.80,0.62,1.56,0.05,0.00,-0.07,-12.28,-8.16,16.49,24599
-9.76,0.79,1.45,0.04,-0.01,-0.07,-12.41,-8.78,16.08,24633
-9.83,0.75,1.42,0.04,-0.03,-0.06,-12.04,-8.67,16.53,24667
-9.76,0.56,1.54,0.03,-0.05,-0.06,-12.19,-8.64,16.22,24702
-9.87,0.51,1.60,0.03,-0.09,-0.06,-12.17,-8.48,15.87,24736
-9.75,0.54,1.57,0.04,-0.10,-0.07,-12.19,-8.49,16.98,24770
-9.69,0.38,1.63,0.04,-0.11,-0.08,-12.31,-8.42,16.18,24804
-9.58,0.51,1.67,0.04,-0.12,-0.08,-11.98,-8.45,16.21,24838
-9.55,0.55,1.75,0.05,-0.09,-0.07,-12.07,-8.14,16.71,24873
-9.60,0.68,1.72,0.05,-0.08,-0.07,-11.77,-8.84,15.89,24907
-9.67,0.70,1.68,0.05,-0.02,-0.08,-12.04,-8.45,16.40,24941
-9.63,0.62,1.74,0.04,-0.03,-0.08,-12.51,-8.36,16.43,24975
-9.66,0.84,1.61,0.04,-0.03,-0.07,-11.91,-8.99,15.97,25009
-9.66,0.62,1.74,0.03,-0.02,-0.07,-11.81,-8.46,16.66,25043
-9.69,0.62,1.68,0.04,-0.04,-0.07,-11.75,-8.39,15.73,25078
-9.70,0.41,1.58,0.05,-0.01,-0.07,-11.62,-8.23,16.22,25112
-9.75,0.55,1.63,0.06,-0.02,-0.09,-11.44,-8.49,16.43,25146
-9.81,0.51,1.58,0.05,-0.05,-0.08,-11.98,-8.36,16.02,25180
-9.55,0.76,1.61,0.04,-0.05,-0.07,-11.50,-8.05,16.40,25214
-9.58,0.84,1.71,0.04,-0.02,-0.07,-11.62,-8.27,16.28,25249
-9.54,0.72,1.74,0.04,-0.01,-0.07,-11.78,-8.42,16.95,25283
-9.62,0.66,1.66,0.04,0.02,-0.07,-12.28,-8.29,16.03,25317
-9.59,0.62,1.64,0.04,0.04,-0.08,-11.79,-8.20,16.30,25351
-9.56,0.51,1.39,0.05,0.03,-0.08,-12.22,-8.08,16.60,25385
-9.78,0.51,1.40,0.06,0.05,-0.07,-12.45,-8.64,15.77,25419
-9.83,0.59,1.42,0.06,0.03,-0.07,-12.63,-8.29,16.34,25454
-9.90,0.69,1.36,0.06,-0.01,-0.07,-12.60,-7.98,16.30,25488
-9.83,0.62,1.37,0.04,-0.04,-0.07,-12.83,-8.83,15.62,25522
-9.76,0.58,1.52,0.04,-0.05,-0.07,-12.57,-8.54,15.97,25556
-9.59,0.77,1.57,0.03,-0.05,-0.07,-12.86,-8.10,15.95,25590
-9.63,0.76,1.53,0.04,-0.03,-0.08,-12.57,-8.48,16.34,25625
-9.49,0.58,1.45,0.05,0.03,-0.08,-12.66,-8.29,16.75,25659
-9.62,0.63,1.39,0.06,0.05,-0.07,-12.41,-8.37,15.73,25693
-9.85,0.37,1.44,0.07,0.06,-0.06,-12.60,-8.14,15.46,25727
-9.94,0.61,1.26,0.05,0.01,-0.07,-12.95,-8.23,15.90,25761
-9.87,0.90,1.29,0.04,-0.01,-0.07,-12.93,-8.37,15.86,25795
-9.79,0.75,1.40,0.03,-0.03,-0.07,-13.10,-8.61,16.21,25830
-9.48,0.82,1.29,0.03,-0.03,-0.07,-13.12,-8.56,15.27,25864
-9.52,0.62,1.21,0.05,0.01,-0.07,-13.14,-8.71,16.71,25898
-9.64,0.29,1.29,0.06,0.05,-0.07,-13.49,-8.87,16.35,25932
-10.04,0.10,1.30,0.06,0.01,-0.06,-13.31,-8.75,16.16,25966
-10.07,0.15,1.26,0.05,-0.03,-0.07,-13.81,-8.56,16.43,26000
-10.01,0.53,1.46,0.04,-0.06,-0.08,-13.23,-8.80,16.35,26035
-9.63,0.72,1.17,0.03,-0.11,-0.08,-13.37,-8.49,16.69,26069
-9.54,0.96,1.20,0.04,-0.05,-0.09,-13.69,-8.99,16.40,26103
-9.58,1.10,1.17,0.05,-0.04,-0.08,-14.21,-8.62,16.35,26137
-9.57,1.12,1.21,0.05,-0.03,-0.07,-14.10,-8.52,16.24,26171
-9.60,0.90,1.30,0.05,0.00,-0.07,-13.94,-8.27,15.99,26206
-9.67,0.89,1.25,0.05,0.01,-0.07,-13.87,-8.46,15.61,26240
-9.64,0.81,1.19,0.05,0.02,-0.07,-14.19,-8.39,15.51,26274
-9.56,0.69,1.24,0.04,0.03,-0.06,-14.13,-8.78,16.37,26308
-9.63,0.57,1.19,0.05,0.05,-0.06,-14.34,-8.39,16.44,26342
-9.66,0.52,1.18,0.05,0.07,-0.06,-14.56,-8.40,16.62,26376
-9.83,0.48,1.11,0.06,0.10,-0.07,-14.85,-8.14,15.73,26411
-9.87,0.48,1.10,0.06,0.09,-0.07,-14.51,-8.48,15.16,26445
-9.96,0.38,0.96,0.06,0.07,-0.07,-14.91,-8.04,15.08,26479
-9.96,0.47,0.85,0.05,0.02,-0.07,-15.16,-8.17,15.51,26513
-10.00,0.41,0.89,0.05,0.00,-0.07,-14.83,-8.62,15.05,26547
-9.92,0.41,0.89,0.04,-0.05,-0.07,-15.59,-7.92,15.32,26582
-9.88,0.55,0.96,0.04,-0.08,-0.07,-15.17,-8.42,15.46,26616
-9.83,0.45,0.94,0.03,-0.10,-0.07,-15.16,-8.24,15.86,26650
-9.74,0.61,1.03,0.03,-0.11,-0.07,-14.98,-8.37,15.77,26684
-9.65,0.78,1.17,0.03,-0.08,-0.07,-14.43,-8.33,15.33,26718
-9.61,0.76,1.13,0.04,-0.08,-0.07,-14.64,-8.17,15.71,26752
-9.59,0.80,1.05,0.04,-0.03,-0.08,-14.43,-8.32,16.00,26787
-9.71,0.80,1.10,0.05,-0.01,-0.08,-14.89,-8.39,15.55,26821
-9.60,0.83,0.94,0.04,-0.01,-0.07,-14.91,-8.32,15.67,26855
-9.77,0.69,0.90,0.05,0.00,-0.08,-14.45,-8.27,15.29,26889
-9.79,0.69,0.90,0.05,0.01,-0.08,-14.69,-8.40,15.00,26923
-9.84,0.60,0.82,0.05,-0.02,-0.07,-14.60,-8.40,15.13,26958
-9.87,0.53,0.93,0.04,-0.02,-0.07,-14.78,-8.52,15.02,26992
-9.80,0.57,0.92,0.04,-0.05,-0.07,-15.02,-8.42,14.88,27026
-9.81,0.66,1.02,0.04,-0.04,-0.07,-14.70,-8.46,15.95,27060
-9.78,0.64,1.01,0.04,-0.05,-0.07,-14.41,-8.48,15.70,27094
-9.79,0.62,1.03,0.04,-0.03,-0.08,-14.91,-8.23,16.00,27128
-9.70,0.63,0.99,0.04,-0.03,-0.08,-14.70,-8.37,15.59,27163
-9.74,0.66,0.96,0.04,-0.03,-0.08,-14.92,-8.27,15.32,27197
-9.66,0.73,0.93,0.05,-0.01,-0.08,-15.38,-7.85,15.68,27231
-9.74,0.65,0.90,0.05,-0.00,-0.07,-15.81,-8.36,15.08,27265
-9.80,0.58,0.90,0.05,0.00,-0.08,-15.84,-7.59,14.66,27299
-9.93,0.66,0.89,0.05,0.00,-0.08,-15.58,-8.13,15.19,27333
-9.86,0.55,0.83,0.05,-0.02,-0.08,-15.54,-7.80,15.57,27368
-9.77,0.67,0.82,0.05,-0.03,-0.08,-15.71,-7.89,15.30,27402
-9.85,0.63,0.81,0.05,-0.03,-0.08,-15.71,-7.83,14.81,27436
-9.96,0.58,0.83,0.05,-0.05,-0.08,-15.35,-7.95,15.55,27470
-10.01,0.49,0.82,0.04,-0.09,-0.08,-15.36,-8.24,15.45,27504
-9.94,0.58,0.81,0.03,-0.13,-0.09,-15.33,-8.14,15.70,27539
-9.95,0.60,0.88,0.03,-0.16,-0.09,-15.17,-8.24,15.58,27573
-9.80,0.71,1.01,0.01,-0.19,-0.08,-14.81,-8.43,15.55,27607
-9.68,0.60,1.03,0.01,-0.19,-0.08,-14.25,-7.72,15.71,27641
-9.71,0.70,1.26,0.02,-0.16,-0.09,-14.44,-8.45,16.37,27675
-9.63,0.83,1.09,0.03,-0.15,-0.10,-14.05,-8.32,15.52,27709
-9.87,0.73,1.22,0.04,-0.08,-0.13,-14.37,-8.93,15.29,27744
-10.15,0.46,1.23,0.04,-0.08,-0.15,-13.84,-8.17,15.36,27778
-10.40,0.06,1.00,0.05,-0.08,-0.25,-14.03,-8.81,15.68,27812
-10.88,-0.13,1.48,0.07,0.12,-0.39,-14.06,-8.61,15.68,27846
-11.60,-0.35,2.16,0.08,0.34,-0.66,-14.24,-8.62,15.76,27880
-11.52,-1.25,2.16,0.06,0.49,-1.00,-15.07,-9.13,15.02,27915
-10.93,-2.00,1.93,0.09,0.49,-1.22,-15.54,-9.92,14.50,27949
-9.68,-2.40,0.89,0.08,0.47,-1.34,-16.18,-10.63,14.06,27983
-8.36,-2.09,0.05,0.06,0.26,-1.24,-16.43,-11.68,14.24,28017
-8.00,-1.38,-0.13,0.01,0.28,-1.08,-17.04,-12.45,14.22,28051
-8.20,-0.64,-0.13,-0.05,0.14,-0.78,-16.66,-13.36,14.78,28085
-8.47,-0.56,-0.16,-0.04,0.10,-0.59,-16.91,-13.67,14.86,28120
-8.33,-0.65,-0.46,0.03,0.10,-0.40,-16.94,-13.81,15.29,28154
-8.96,-0.65,-0.53,0.09,0.20,-0.27,-17.10,-13.80,14.10,28188
-9.52,-0.88,-0.57,0.05,0.17,-0.18,-17.45,-13.68,14.98,28222
-10.16,-1.60,-0.44,-0.01,0.03,-0.06,-17.77,-14.13,14.47,28256
-9.95,-2.36,-0.66,-0.02,-0.16,-0.02,-17.22,-13.69,14.24,28291
-10.08,-2.82,-0.78,0.00,-0.24,-0.08,-17.61,-13.84,14.12,28325
-10.73,-3.16,-0.39,0.05,-0.25,-0.20,-17.19,-13.62,14.60,28359
-10.85,-3.75,-0.16,0.04,-0.40,-0.60,-16.65,-14.81,14.64,28393
-10.40,-4.63,0.03,-0.00,-0.58,-0.43,-15.80,-14.22,14.83,28427
-10.00,-4.97,0.53,-0.02,-0.52,-0.60,-14.10,-15.43,15.89,28461
-9.73,-5.10,1.13,-0.03,-0.54,-0.72,-13.46,-15.48,16.06,28496
-8.88,-4.51,1.29,-0.02,-0.49,-0.82,-12.79,-15.97,15.84,28530
-7.92,-4.17,1.29,-0.00,-0.37,-0.88,-11.25,-16.92,15.97,28564
-7.92,-3.47,1.22,-0.04,-0.24,-0.89,-11.09,-17.38,16.02,28598
-9.32,-2.28,1.67,-0.04,-0.10,-0.81,-11.31,-17.73,16.52,28632
-8.07,-1.56,0.79,-0.00,0.00,-0.70,-10.55,-17.99,16.52,28666
-8.80,-2.27,0.89,-0.00,0.03,-0.63,-10.11,-18.11,16.57,28701
-9.18,-2.33,0.51,0.04,0.16,-0.51,-9.89,-18.65,16.33,28735
-9.29,-2.42,0.79,0.03,0.07,-0.43,-10.52,-18.39,16.46,28769
-12.25,-2.58,0.14,0.12,0.26,-0.49,-9.89,-19.10,16.25,28803
-7.97,-2.87,1.17,0.08,0.02,-0.17,-10.32,-19.07,15.93,28837
-9.16,-3.52,0.58,0.07,0.16,-0.18,-10.60,-19.07,15.80,28872
-9.70,-3.50,0.68,0.11,0.29,-0.14,-10.42,-19.44,15.27,28906
-6.29,-4.77,1.59,-0.01,-0.20,0.01,-10.83,-19.91,15.01,28940
-8.59,-4.53,0.38,0.06,0.03,-0.05,-10.60,-19.39,15.32,28974
-9.14,-5.11,0.46,-0.01,0.07,-0.08,-11.02,-19.06,16.02,29008
-8.33,-5.66,1.27,0.08,0.08,-0.07,-11.06,-19.47,15.67,29042
-8.54,-5.18,0.46,0.02,-0.03,-0.11,-11.37,-19.57,15.42,29077
-8.21,-5.06,0.18,0.02,-0.06,-0.09,-11.08,-19.57,15.95,29111
-8.60,-5.12,0.20,0.11,0.09,-0.13,-11.65,-18.82,15.73,29145
-9.07,-4.98,0.57,0.22,-0.00,-0.34,-11.82,-18.97,15.55,29179
-8.03,-4.39,1.03,0.09,0.10,-0.26,-12.10,-19.15,15.51,29213
-8.33,-5.32,0.99,-0.26,0.30,-0.21,-12.36,-19.12,15.45,29248
-9.22,-4.43,0.22,-0.45,0.09,-0.05,-12.60,-19.82,15.49,29282
-8.54,-5.95,0.33,-0.43,0.03,-0.19,-12.48,-20.17,14.91,29316
-8.88,-5.94,-0.04,0.16,-0.13,-0.16,-12.45,-20.27,15.57,29350
-8.27,-4.39,0.08,0.42,-0.04,-0.30,-12.34,-20.26,14.89,29384
-12.73,-5.48,0.48,0.36,-0.25,-0.28,-12.13,-19.95,15.57,29418
-6.29,-4.61,0.82,0.14,-0.37,-0.43,-11.06,-20.04,16.12,29453
-7.80,-4.50,0.65,0.02,-0.12,-0.24,-11.56,-20.07,15.40,29487
-8.71,-5.16,0.58,0.02,-0.04,-0.05,-11.77,-19.96,16.06,29521
-8.48,-3.98,1.00,0.09,-0.04,-0.15,-11.36,-20.14,16.02,29555
-5.85,-4.08,1.16,0.14,0.25,-1.63,-11.11,-20.29,14.89,29589
-10.17,-6.75,0.48,-0.19,0.74,-0.93,-12.04,-20.86,15.48,29624
-8.42,-5.74,1.10,0.04,0.07,-0.28,-11.72,-21.09,14.81,29658
-7.80,-4.83,1.29,-0.31,-0.22,-0.54,-11.59,-21.34,15.30,29692
-8.76,-5.50,1.59,-0.01,-0.28,0.04,-11.68,-21.73,15.01,29726
-8.17,-6.66,2.04,0.30,-0.19,0.09,-11.05,-21.95,15.11,29760
-6.57,-6.04,-0.52,-0.22,0.45,-0.13,-11.56,-21.72,15.38,29794
-9.81,-4.52,0.01,-0.85,0.33,-0.27,-12.20,-22.55,14.92,29829
-9.36,-4.47,-1.29,-2.56,0.51,0.26,-13.14,-25.33,13.21,29863
-7.48,-3.35,-2.61,-7.23,-0.56,1.13,-13.20,-32.93,8.77,29897
-7.60,-6.17,-3.73,-6.32,-1.13,1.28,-13.40,-39.49,3.55,29931
-8.91,-3.47,-3.41,-0.02,0.12,0.10,-13.71,-41.20,2.15,29965
-9.46,-2.87,-3.44,-0.62,0.14,0.07,-15.01,-41.29,1.55,30000
-7.99,-3.38,-2.99,1.59,0.29,-0.44,-14.40,-41.06,2.73,30034
-6.65,-8.01,-4.96,8.29,0.36,-2.07,-13.49,-38.32,5.12,30068
-7.05,-4.83,-2.58,0.11,0.03,0.21,-13.90,-38.56,5.26,30102
-9.58,-3.10,-2.22,1.05,0.17,-0.03,-13.99,-37.42,6.47,30136
-8.90,-5.59,-2.86,-0.61,-0.28,0.05,-14.03,-37.40,6.01,30170
-8.82,-4.38,-3.98,-1.54,-0.52,0.47,-14.25,-38.21,5.03,30205
-9.40,-4.34,-3.53,-5.06,-0.94,1.37,-14.19,-41.44,1.56,30239
-9.25,-2.46,-3.84,-5.79,-1.00,1.40,-15.52,-44.71,-3.65,30273
-9.32,-1.08,-3.89,-4.77,-0.70,0.84,-16.19,-47.53,-8.86,30307
-10.68,-0.59,-6.93,-7.27,-1.18,1.06,-16.94,-50.51,-18.44,30341
-7.68,-3.78,0.19,-7.59,-1.17,-0.10,-16.91,-51.10,-27.43,30375
-15.72,9.50,-12.08,-7.38,-3.88,1.29,-17.60,-50.31,-31.75,30410
-10.65,-0.85,-3.62,-4.14,-3.54,0.48,-18.69,-48.48,-36.16,30444
-8.35,2.06,-0.40,-1.51,1.30,0.75,-20.51,-46.48,-39.55,30478
-9.83,2.18,1.97,-0.34,0.18,-0.24,-19.66,-46.36,-40.05,30512
-9.37,1.89,-0.19,-0.48,0.31,-0.25,-19.53,-45.85,-41.52,30546
-10.23,0.96,-2.04,-0.69,0.85,0.07,-19.99,-45.48,-42.85,30581
-9.20,2.53,-0.96,-2.11,0.36,0.59,-20.29,-43.23,-46.02,30615
-8.97,3.37,-0.71,-2.50,0.11,0.67,-21.32,-40.72,-47.94,30649
-10.17,2.74,-2.04,-1.87,0.79,1.40,-21.81,-39.21,-49.81,30683
-8.86,4.59,-2.12,-1.19,0.19,0.85,-22.16,-37.69,-50.83,30717
-10.45,2.95,-1.67,1.51,-1.16,-0.47,-22.39,-38.21,-49.53,30751
-9.79,2.67,1.00,2.19,-1.13,-0.98,-22.01,-41.06,-46.27,30786
-14.09,8.48,0.96,1.71,0.02,1.36,-22.10,-41.19,-44.75,30820
-9.22,3.20,-1.97,-1.86,0.45,1.00,-22.55,-40.89,-45.91,30854
-9.27,2.69,-0.32,-1.96,0.29,1.25,-23.87,-38.29,-48.14,30888
-8.29,3.23,-0.73,-2.91,0.14,1.61,-24.96,-34.70,-49.78,30922
-8.46,6.33,-1.04,-7.28,-1.06,2.52,-27.30,-25.81,-53.71,30957
-8.70,4.27,0.55,-2.92,0.03,1.13,-27.16,-21.62,-54.55,30991
-9.12,4.86,2.06,-4.73,-0.92,1.56,-28.41,-16.41,-55.38,31025
-3.63,6.45,5.40,-4.12,-1.50,1.38,-29.61,-8.97,-53.22,31059
-6.92,5.70,4.17,-2.21,-0.82,1.03,-30.47,-6.08,-52.69,31093
-7.66,4.86,4.45,0.93,0.25,-0.10,-30.01,-6.31,-52.57,31127
-6.98,4.53,3.67,-0.28,0.17,0.21,-29.73,-5.86,-53.26,31162
-7.75,5.98,4.30,-0.03,0.12,0.08,-29.93,-5.71,-53.68,31196
-7.19,5.21,3.33,-0.72,0.02,0.11,-29.48,-4.97,-53.24,31230
-7.38,5.17,3.82,-0.95,-0.34,0.28,-29.82,-4.31,-53.61,31264
-7.31,5.85,4.24,-0.84,-0.22,0.22,-30.34,-2.69,-52.79,31298
-7.41,5.24,4.46,-1.09,-0.28,-0.06,-30.17,-2.27,-52.88,31333
-7.22,5.87,4.28,-0.41,-0.22,0.03,-30.34,-1.30,-52.13,31367
-7.48,4.90,3.34,0.82,-0.14,-0.36,-30.42,-2.12,-52.21,31401
-7.24,4.85,4.86,-0.37,-0.06,-0.03,-30.44,-2.67,-52.35,31435
-7.24,5.08,5.00,-0.23,-0.20,-0.08,-30.74,-2.43,-52.10,31469
-7.19,4.17,4.47,-0.61,-0.11,0.05,-30.59,-1.49,-51.96,31503
-7.70,5.55,4.43,-0.20,-0.16,-0.15,-30.39,-1.90,-51.91,31538
-7.38,5.02,5.15,0.11,-0.21,-0.33,-31.25,-1.96,-50.92,31572
-6.99,5.06,4.01,0.09,0.05,-0.23,-31.28,-2.19,-51.91,31606
-7.63,5.97,4.54,1.14,0.05,-0.44,-31.28,-2.78,-51.49,31640
-7.62,5.11,4.13,1.74,0.20,-0.93,-31.35,-5.29,-52.97,31674
-8.18,4.73,4.71,2.55,-0.24,-1.62,-31.32,-9.08,-53.46,31708
-7.57,2.93,3.43,2.92,0.22,-1.17,-30.99,-13.26,-53.95,31743
-7.08,5.53,2.45,3.48,-0.90,-0.52,-31.58,-17.09,-53.22,31777
-7.05,5.17,3.90,0.77,-1.19,-0.46,-32.80,-18.58,-51.34,31811
-8.03,5.45,2.93,-0.25,-0.61,-0.66,-33.78,-18.37,-50.44,31845
-7.66,5.42,3.21,0.49,-0.37,-0.93,-33.89,-19.80,-49.42,31879
-8.40,5.02,3.22,0.65,-0.72,-0.69,-34.13,-20.81,-48.95,31914
-7.99,3.86,4.74,0.69,-0.72,-0.98,-34.49,-22.29,-47.02,31948
-7.50,3.35,2.08,1.84,0.65,-0.87,-33.53,-25.69,-47.30,31982
-9.04,3.93,3.78,1.33,0.43,-0.87,-32.56,-28.15,-46.58,32016
-8.20,0.50,1.66,0.01,-0.08,-0.13,-31.54,-28.46,-47.14,32050
-8.45,4.51,3.02,-1.78,-1.08,1.60,-32.83,-25.77,-46.87,32084
-8.41,8.09,4.18,-1.24,-0.59,1.11,-34.60,-23.03,-46.32,32119
-7.93,3.97,2.93,-0.21,-0.18,-0.13,-34.51,-23.15,-46.36,32153
-7.86,5.51,3.97,0.87,-0.42,-0.05,-34.90,-23.19,-45.97,32187
-7.56,3.67,4.07,0.98,-0.03,-0.40,-34.87,-24.01,-45.69,32221
